style,target_beta,styles.thisRepN,styles.thisTrialN,styles.thisN,styles.thisIndex,beta.thisRepN,beta.thisTrialN,beta.thisN,beta.thisIndex,stimuli.thisRepN,stimuli.thisTrialN,stimuli.thisN,stimuli.thisIndex,text.started,spacebar_1.started,spacebar_1.keys,spacebar_1.rt,mouse.started,beta_l,beta_r,seed_l,seed_r,style,target_beta,mouse.x,mouse.y,mouse.leftButton,mouse.midButton,mouse.rightButton,mouse.time,mouse.corr,mouse.clicked_name,pause_text.started,key_resp.started,key_resp.keys,key_resp.rt,thank_you.started,participant,session,date,expName,psychopyVersion,frameRate,
,,,,,,,,,,,,,,10.769023300032131,10.769023300032131,space,1.14568189997226,,,,,,,,,,,,,,,,,,,,,664542,001,2023-05-19_00h47.37.695,staircase,2023.1.1,60.00132002512176,
two_seed_gs,2,0,0,0,1,0,0,0,0,0,0,0,0,,,,,0.21836120006628335,3,1,599,791,two_seed_gs,2,[0.25833333333333336],[0.10185185185185185],[1],[0],[0],[1.5214075999101624],[1],['image_r'],,,,,,664542,001,2023-05-19_00h47.37.695,staircase,2023.1.1,60.00132002512176,
two_seed_gs,2,0,0,0,1,0,0,0,0,1,0,1,0,,,,,0.10533580009359866,2.9,1.1,11623,4637,two_seed_gs,2,[0.4222222222222222],[0.04351851851851852],[1],[0],[0],[0.7002779999747872],[1],['image_r'],,,,,,664542,001,2023-05-19_00h47.37.695,staircase,2023.1.1,60.00132002512176,
two_seed_gs,2,0,0,0,1,0,0,0,0,2,0,2,0,,,,,0.10423850000370294,2.81,1.1900000000000002,2820,2672,two_seed_gs,2,[0.33055555555555555],[0.03333333333333333],[1],[0],[0],[0.6201212999876589],[1],['image_r'],,,,,,664542,001,2023-05-19_00h47.37.695,staircase,2023.1.1,60.00132002512176,
two_seed_gs,2,0,0,0,1,0,0,0,0,3,0,3,0,,,,,0.10574150003958493,2.729,1.2710000000000001,6116,10294,two_seed_gs,2,[0.31574074074074077],[0.03888888888888889],[1],[0],[0],[0.6017517000436783],[1],['image_r'],,,,,,664542,001,2023-05-19_00h47.37.695,staircase,2023.1.1,60.00132002512176,
two_seed_gs,2,0,0,0,1,0,0,0,0,4,0,4,0,,,,,0.10501289996318519,2.656,1.344,9092,10205,two_seed_gs,2,[0.3574074074074074],[0.027777777777777776],[1],[0],[0],[0.7020355999702588],[1],['image_r'],,,,,,664542,001,2023-05-19_00h47.37.695,staircase,2023.1.1,60.00132002512176,
two_seed_gs,2,0,0,0,1,0,0,0,0,5,0,5,0,,,,,0.10512299998663366,2.5900000000000003,1.4100000000000001,2144,11977,two_seed_gs,2,[0.3037037037037037],[0.017592592592592594],[1],[0],[0],[0.9202798999613151],[1],['image_r'],,,,,,664542,001,2023-05-19_00h47.37.695,staircase,2023.1.1,60.00132002512176,
two_seed_gs,2,0,0,0,1,0,0,0,0,6,0,6,0,,,,,0.10525539994705468,2.531,1.469,5992,4146,two_seed_gs,2,[0.32314814814814813],[0.021296296296296296],[1],[0],[0],[0.884495300007984],[1],['image_r'],,,,,,664542,001,2023-05-19_00h47.37.695,staircase,2023.1.1,60.00132002512176,
two_seed_gs,2,0,0,0,1,0,0,0,0,7,0,7,0,,,,,0.10632989997975528,2.478,1.522,11594,8142,two_seed_gs,2,[0.3101851851851852],[0.024074074074074074],[1],[0],[0],[0.8347192999208346],[1],['image_r'],,,,,,664542,001,2023-05-19_00h47.37.695,staircase,2023.1.1,60.00132002512176,
two_seed_gs,2,0,0,0,1,0,0,0,0,8,0,8,0,,,,,0.10744940000586212,1.57,2.43,449,7510,two_seed_gs,2,[-0.27870370370370373],[0.010185185185185186],[1],[0],[0],[0.5978580999653786],[1],['image_l'],,,,,,664542,001,2023-05-19_00h47.37.695,staircase,2023.1.1,60.00132002512176,
two_seed_gs,2,0,0,0,1,0,0,0,0,9,0,9,0,,,,,0.10418859997298568,2.387,1.613,2937,7755,two_seed_gs,2,[0.3435185185185185],[-0.017592592592592594],[1],[0],[0],[1.070155799970962],[1],['image_r'],,,,,,664542,001,2023-05-19_00h47.37.695,staircase,2023.1.1,60.00132002512176,
two_seed_gs,2,0,0,0,1,0,0,0,0,10,0,10,0,,,,,0.10495940002147108,2.348,1.652,6670,4844,two_seed_gs,2,[0.31666666666666665],[-0.001851851851851852],[1],[0],[0],[0.9522866000188515],[1],['image_r'],,,,,,664542,001,2023-05-19_00h47.37.695,staircase,2023.1.1,60.00132002512176,
two_seed_gs,2,0,0,0,1,0,0,0,0,11,0,11,0,,,,,0.10441139992326498,1.6869999999999998,2.3129999999999997,9355,1096,two_seed_gs,2,[-0.30277777777777776],[-0.012962962962962963],[1],[0],[0],[0.5527210999280214],[1],['image_l'],,,,,,664542,001,2023-05-19_00h47.37.695,staircase,2023.1.1,60.00132002512176,
two_seed_gs,2,0,0,0,1,0,0,0,0,12,0,12,0,,,,,0.10739510005805641,1.7179999999999997,2.2819999999999996,1770,4971,two_seed_gs,2,[-0.29444444444444445],[0.000925925925925926],[1],[0],[0],[0.7002118000527844],[1],['image_l'],,,,,,664542,001,2023-05-19_00h47.37.695,staircase,2023.1.1,60.00132002512176,
two_seed_gs,2,0,0,0,1,0,0,0,0,13,0,13,0,,,,,0.10833039996214211,1.7459999999999998,2.2539999999999996,4298,9063,two_seed_gs,2,[-0.25833333333333336],[0.001851851851851852],[1],[0],[0],[0.7834528000093997],[1],['image_l'],,,,,,664542,001,2023-05-19_00h47.37.695,staircase,2023.1.1,60.00132002512176,
two_seed_gs,2,0,0,0,1,0,0,0,0,14,0,14,0,,,,,0.10490959999151528,1.7709999999999997,2.2289999999999996,7923,8652,two_seed_gs,2,[-0.27870370370370373],[0.001851851851851852],[1],[0],[0],[1.0520482000429183],[1],['image_l'],,,,,,664542,001,2023-05-19_00h47.37.695,staircase,2023.1.1,60.00132002512176,
two_seed_gs,2,0,0,0,1,0,0,0,0,15,0,15,0,,,,,0.10686539998278022,2.2059999999999995,1.7939999999999996,1758,8505,two_seed_gs,2,[0.22592592592592592],[-0.020370370370370372],[1],[0],[0],[1.283911500009708],[1],['image_r'],,,,,,664542,001,2023-05-19_00h47.37.695,staircase,2023.1.1,60.00132002512176,
two_seed_gs,2,0,0,0,1,0,0,0,0,16,0,16,0,,,,,0.11053800000809133,1.8149999999999995,2.1849999999999996,6016,4803,two_seed_gs,2,[-0.3592592592592593],[0.014814814814814815],[1],[0],[0],[0.7640929999761283],[1],['image_l'],,,,,,664542,001,2023-05-19_00h47.37.695,staircase,2023.1.1,60.00132002512176,
two_seed_gs,2,0,0,0,1,0,0,0,0,17,0,17,0,,,,,0.10572230000980198,2.167,1.8339999999999994,6007,7637,two_seed_gs,2,[0.25092592592592594],[-0.006481481481481481],[1],[0],[0],[0.8512147000292316],[1],['image_r'],,,,,,664542,001,2023-05-19_00h47.37.695,staircase,2023.1.1,60.00132002512176,
two_seed_gs,2,0,0,0,1,0,0,0,0,18,0,18,0,,,,,0.11342329997569323,2.15,1.8509999999999993,10646,9461,two_seed_gs,2,[0.23796296296296296],[0.06481481481481481],[1],[0],[0],[2.244391500018537],[1],['image_r'],,,,,,664542,001,2023-05-19_00h47.37.695,staircase,2023.1.1,60.00132002512176,
two_seed_gs,2,0,0,0,1,0,0,0,0,19,0,19,0,,,,,0.10567439999431372,2.135,1.8659999999999992,10023,3008,two_seed_gs,2,[0.21388888888888888],[0.1],[1],[0],[0],[1.98501760000363],[1],['image_r'],,,,,,664542,001,2023-05-19_00h47.37.695,staircase,2023.1.1,60.00132002512176,
two_seed_gs,2,0,0,0,1,0,0,0,0,20,0,20,0,,,,,0.10453839995898306,2.122,1.8789999999999991,9301,2877,two_seed_gs,2,[0.24259259259259258],[0.07314814814814814],[1],[0],[0],[2.501971199992113],[1],['image_r'],,,,,,664542,001,2023-05-19_00h47.37.695,staircase,2023.1.1,60.00132002512176,
two_seed_gs,2,0,0,0,1,0,0,0,0,21,0,21,0,,,,,0.10473160003311932,2.11,1.8909999999999991,11399,5560,two_seed_gs,2,[0.2490740740740741],[0.06018518518518518],[1],[0],[0],[1.5356002000626177],[1],['image_r'],,,,,,664542,001,2023-05-19_00h47.37.695,staircase,2023.1.1,60.00132002512176,
two_seed_gs,2,0,0,0,1,0,0,0,0,22,0,22,0,,,,,0.10414330009371042,2.0989999999999998,1.901999999999999,2221,4301,two_seed_gs,2,[0.29814814814814816],[0.062037037037037036],[1],[0],[0],[1.0370509999338537],[1],['image_r'],,,,,,664542,001,2023-05-19_00h47.37.695,staircase,2023.1.1,60.00132002512176,
two_seed_gs,2,0,0,0,1,0,0,0,0,23,0,23,0,,,,,0.10421449993737042,1.911999999999999,2.089,5940,9408,two_seed_gs,2,[-0.21388888888888888],[0.005555555555555556],[1],[0],[0],[1.8528175000101328],[1],['image_l'],,,,,,664542,001,2023-05-19_00h47.37.695,staircase,2023.1.1,60.00132002512176,
two_seed_gs,2,0,0,0,1,0,0,0,0,24,0,24,0,,,,,0.10301680001430213,2.08,1.920999999999999,1567,4743,two_seed_gs,2,[0.19537037037037036],[0.13333333333333333],[1],[0],[0],[4.204748900025152],[1],['image_r'],,,,,,664542,001,2023-05-19_00h47.37.695,staircase,2023.1.1,60.00132002512176,
two_seed_gs,2,0,0,0,1,0,0,0,0,25,0,25,0,,,,,0.1043103999691084,2.072,1.928999999999999,7461,9524,two_seed_gs,2,[0.17222222222222222],[0.09907407407407408],[1],[0],[0],[1.6739559998968616],[1],['image_r'],,,,,,664542,001,2023-05-19_00h47.37.695,staircase,2023.1.1,60.00132002512176,
two_seed_gs,2,0,0,0,1,0,0,0,0,26,0,26,0,,,,,0.10408320010174066,1.9359999999999988,2.065,9274,6999,two_seed_gs,2,[-0.2537037037037037],[0.040740740740740744],[1],[0],[0],[1.3843837999738753],[1],['image_l'],,,,,,664542,001,2023-05-19_00h47.37.695,staircase,2023.1.1,60.00132002512176,
two_seed_gs,2,0,0,0,1,0,0,0,0,27,0,27,0,,,,,0.10486490000039339,1.9419999999999988,2.059,1639,480,two_seed_gs,2,[-0.37037037037037035],[0.12129629629629629],[1],[0],[0],[4.317759500001557],[1],['image_l'],,,,,,664542,001,2023-05-19_00h47.37.695,staircase,2023.1.1,60.00132002512176,
two_seed_gs,2,0,0,0,1,0,0,0,0,28,0,28,0,,,,,0.10392340004909784,1.9479999999999988,2.0530000000000004,3568,7926,two_seed_gs,2,[0.17314814814814813],[0.11018518518518519],[1],[0],[0],[1.4204002000624314],[0],['image_r'],,,,,,664542,001,2023-05-19_00h47.37.695,staircase,2023.1.1,60.00132002512176,
two_seed_gs,2,0,0,0,1,0,0,0,0,29,0,29,0,,,,,0.10322650009766221,2.0480000000000005,1.9529999999999987,11477,2009,two_seed_gs,2,[0.262037037037037],[0.06018518518518518],[1],[0],[0],[1.4879534000065178],[1],['image_r'],,,,,,664542,001,2023-05-19_00h47.37.695,staircase,2023.1.1,60.00132002512176,
two_seed_gs,2,0,0,0,1,0,0,0,0,30,0,30,0,,,,,0.10327829991001636,2.0530000000000004,1.9479999999999988,7207,11107,two_seed_gs,2,[0.262037037037037],[0.09259259259259259],[1],[0],[0],[1.4546721999067813],[1],['image_r'],,,,,,664542,001,2023-05-19_00h47.37.695,staircase,2023.1.1,60.00132002512176,
two_seed_gs,2,0,0,0,1,0,0,0,0,31,0,31,0,,,,,0.10407949995715171,1.942999999999999,2.0580000000000003,6664,11775,two_seed_gs,2,[-0.22407407407407406],[0.023148148148148147],[1],[0],[0],[2.320209400029853],[1],['image_l'],,,,,,664542,001,2023-05-19_00h47.37.695,staircase,2023.1.1,60.00132002512176,
two_seed_gs,2,0,0,0,1,0,0,0,0,32,0,32,0,,,,,0.1035363000119105,2.064,1.936999999999999,5265,9601,two_seed_gs,2,[0.19166666666666668],[0.05555555555555555],[1],[0],[0],[1.554104799986817],[1],['image_r'],,,,,,664542,001,2023-05-19_00h47.37.695,staircase,2023.1.1,60.00132002512176,
two_seed_gs,2,0,0,0,1,0,0,0,0,33,0,33,0,,,,,0.10471099999267608,1.942999999999999,2.0580000000000003,5789,7418,two_seed_gs,2,[0.2537037037037037],[0.05648148148148148],[1],[0],[0],[1.4865311000030488],[0],['image_r'],,,,,,664542,001,2023-05-19_00h47.37.695,staircase,2023.1.1,60.00132002512176,
two_seed_gs,2,0,0,0,1,0,0,0,0,34,0,34,0,,,,,0.10752119997050613,1.948999999999999,2.0520000000000005,12138,364,two_seed_gs,2,[-0.175],[0.05555555555555555],[1],[0],[0],[1.982213200069964],[1],['image_l'],,,,,,664542,001,2023-05-19_00h47.37.695,staircase,2023.1.1,60.00132002512176,
two_seed_gs,5.5,0,0,0,1,0,1,1,7,0,0,0,0,,,,,0.10798139998223633,6.5,4.5,2569,11546,two_seed_gs,5.5,[0.24537037037037038],[0.09907407407407408],[1],[0],[0],[1.2588013000786304],[1],['image_r'],67.36925880005583,67.36925880005583,space,1.801899400074035,,664542,001,2023-05-19_00h47.37.695,staircase,2023.1.1,60.00132002512176,
two_seed_gs,5.5,0,0,0,1,0,1,1,7,1,0,1,0,,,,,0.10367000009864569,4.6,6.4,3717,10075,two_seed_gs,5.5,[-0.28425925925925927],[0.049074074074074076],[1],[0],[0],[1.1344820000231266],[1],['image_l'],,,,,,664542,001,2023-05-19_00h47.37.695,staircase,2023.1.1,60.00132002512176,
two_seed_gs,5.5,0,0,0,1,0,1,1,7,2,0,2,0,,,,,0.10110860003624111,6.3100000000000005,4.6899999999999995,10550,4908,two_seed_gs,5.5,[0.35185185185185186],[0.030555555555555555],[1],[0],[0],[0.7233354999916628],[1],['image_r'],,,,,,664542,001,2023-05-19_00h47.37.695,staircase,2023.1.1,60.00132002512176,
two_seed_gs,5.5,0,0,0,1,0,1,1,7,3,0,3,0,,,,,0.12262649997137487,6.229,4.771,8826,3890,two_seed_gs,5.5,[0.34814814814814815],[0.019444444444444445],[1],[0],[0],[0.8850769000127912],[1],['image_r'],,,,,,664542,001,2023-05-19_00h47.37.695,staircase,2023.1.1,60.00132002512176,
two_seed_gs,5.5,0,0,0,1,0,1,1,7,4,0,4,0,,,,,0.10975389997474849,6.156,4.844,7045,2034,two_seed_gs,5.5,[0.31296296296296294],[0.011111111111111112],[1],[0],[0],[1.3124171000672504],[1],['image_r'],,,,,,664542,001,2023-05-19_00h47.37.695,staircase,2023.1.1,60.00132002512176,
two_seed_gs,5.5,0,0,0,1,0,1,1,7,5,0,5,0,,,,,0.10086820006836206,6.09,4.91,7110,5035,two_seed_gs,5.5,[0.4388888888888889],[0.005555555555555556],[1],[0],[0],[1.0397434999467805],[1],['image_r'],,,,,,664542,001,2023-05-19_00h47.37.695,staircase,2023.1.1,60.00132002512176,
two_seed_gs,5.5,0,0,0,1,0,1,1,7,6,0,6,0,,,,,0.10169419995509088,4.969,6.031,1728,1768,two_seed_gs,5.5,[-0.3638888888888889],[0.024074074074074074],[1],[0],[0],[0.6722784999292344],[1],['image_l'],,,,,,664542,001,2023-05-19_00h47.37.695,staircase,2023.1.1,60.00132002512176,
two_seed_gs,5.5,0,0,0,1,0,1,1,7,7,0,7,0,,,,,0.10055299999658018,5.978,5.022,11292,7538,two_seed_gs,5.5,[0.42777777777777776],[0.03611111111111111],[1],[0],[0],[0.8071169999893755],[1],['image_r'],,,,,,664542,001,2023-05-19_00h47.37.695,staircase,2023.1.1,60.00132002512176,
two_seed_gs,5.5,0,0,0,1,0,1,1,7,8,0,8,0,,,,,0.10162139998283237,5.93,5.07,5672,7877,two_seed_gs,5.5,[0.30925925925925923],[0.026851851851851852],[1],[0],[0],[0.7741959999548271],[1],['image_r'],,,,,,664542,001,2023-05-19_00h47.37.695,staircase,2023.1.1,60.00132002512176,
two_seed_gs,5.5,0,0,0,1,0,1,1,7,9,0,9,0,,,,,0.09990600007586181,5.113,5.887,2630,3847,two_seed_gs,5.5,[-0.17777777777777778],[0.000925925925925926],[1],[0],[0],[0.9227956000249833],[1],['image_l'],,,,,,664542,001,2023-05-19_00h47.37.695,staircase,2023.1.1,60.00132002512176,
two_seed_gs,5.5,0,0,0,1,0,1,1,7,10,0,10,0,,,,,0.10212840000167489,5.848,5.152,9592,2269,two_seed_gs,5.5,[0.36018518518518516],[0.001851851851851852],[1],[0],[0],[0.6886170000070706],[1],['image_r'],,,,,,664542,001,2023-05-19_00h47.37.695,staircase,2023.1.1,60.00132002512176,
two_seed_gs,5.5,0,0,0,1,0,1,1,7,11,0,11,0,,,,,0.10784449998755008,5.187,5.813,8286,1133,two_seed_gs,5.5,[-0.3037037037037037],[0.011111111111111112],[1],[0],[0],[0.6332658000756055],[1],['image_l'],,,,,,664542,001,2023-05-19_00h47.37.695,staircase,2023.1.1,60.00132002512176,
two_seed_gs,5.5,0,0,0,1,0,1,1,7,12,0,12,0,,,,,0.10329419991467148,5.218,5.782,5055,9671,two_seed_gs,5.5,[-0.2212962962962963],[0.016666666666666666],[1],[0],[0],[0.8387463000835851],[1],['image_l'],,,,,,664542,001,2023-05-19_00h47.37.695,staircase,2023.1.1,60.00132002512176,
two_seed_gs,5.5,0,0,0,1,0,1,1,7,13,0,13,0,,,,,0.10038580000400543,5.2459999999999996,5.7540000000000004,10126,11815,two_seed_gs,5.5,[-0.25925925925925924],[0.024074074074074074],[1],[0],[0],[1.1731935000279918],[1],['image_l'],,,,,,664542,001,2023-05-19_00h47.37.695,staircase,2023.1.1,60.00132002512176,
two_seed_gs,5.5,0,0,0,1,0,1,1,7,14,0,14,0,,,,,0.10224310006015003,5.271,5.729,4758,3884,two_seed_gs,5.5,[-0.29074074074074074],[0.03518518518518519],[1],[0],[0],[0.7216421000193805],[1],['image_l'],,,,,,664542,001,2023-05-19_00h47.37.695,staircase,2023.1.1,60.00132002512176,
two_seed_gs,5.5,0,0,0,1,0,1,1,7,15,0,15,0,,,,,0.10213829996064305,5.294,5.706,3595,810,two_seed_gs,5.5,[-0.2777777777777778],[0.025925925925925925],[1],[0],[0],[0.7060049999272451],[1],['image_l'],,,,,,664542,001,2023-05-19_00h47.37.695,staircase,2023.1.1,60.00132002512176,
two_seed_gs,5.5,0,0,0,1,0,1,1,7,16,0,16,0,,,,,0.10157820000313222,5.6850000000000005,5.3149999999999995,5255,8632,two_seed_gs,5.5,[0.32222222222222224],[-0.023148148148148147],[1],[0],[0],[0.7721026000799611],[1],['image_r'],,,,,,664542,001,2023-05-19_00h47.37.695,staircase,2023.1.1,60.00132002512176,
two_seed_gs,5.5,0,0,0,1,0,1,1,7,17,0,17,0,,,,,0.1021379999583587,5.334,5.666,8094,11531,two_seed_gs,5.5,[0.3425925925925926],[0.0],[1],[0],[0],[1.1557219999376684],[0],['image_r'],,,,,,664542,001,2023-05-19_00h47.37.695,staircase,2023.1.1,60.00132002512176,
two_seed_gs,5.5,0,0,0,1,0,1,1,7,18,0,18,0,,,,,0.1008191000437364,5.649,5.351,8868,3086,two_seed_gs,5.5,[0.30185185185185187],[-0.005555555555555556],[1],[0],[0],[1.3906388999894261],[1],['image_r'],,,,,,664542,001,2023-05-19_00h47.37.695,staircase,2023.1.1,60.00132002512176,
two_seed_gs,5.5,0,0,0,1,0,1,1,7,19,0,19,0,,,,,0.10040710004977882,5.664,5.336,4856,1616,two_seed_gs,5.5,[0.32314814814814813],[-0.008333333333333333],[1],[0],[0],[0.9403687999583781],[1],['image_r'],,,,,,664542,001,2023-05-19_00h47.37.695,staircase,2023.1.1,60.00132002512176,
two_seed_gs,5.5,0,0,0,1,0,1,1,7,20,0,20,0,,,,,0.10235989990178496,5.68,5.32,343,4809,two_seed_gs,5.5,[0.3037037037037037],[0.010185185185185186],[1],[0],[0],[1.0845438999822363],[1],['image_r'],,,,,,664542,001,2023-05-19_00h47.37.695,staircase,2023.1.1,60.00132002512176,
two_seed_gs,5.5,0,0,0,1,0,1,1,7,21,0,21,0,,,,,0.10061700001824647,5.6979999999999995,5.3020000000000005,1270,5184,two_seed_gs,5.5,[0.29814814814814816],[0.08055555555555556],[1],[0],[0],[0.9565297999652103],[1],['image_r'],,,,,,664542,001,2023-05-19_00h47.37.695,staircase,2023.1.1,60.00132002512176,
two_seed_gs,5.5,0,0,0,1,0,1,1,7,22,0,22,0,,,,,0.10094749997369945,5.322,5.678,6936,420,two_seed_gs,5.5,[-0.3212962962962963],[0.08425925925925926],[1],[0],[0],[0.856973799993284],[1],['image_l'],,,,,,664542,001,2023-05-19_00h47.37.695,staircase,2023.1.1,60.00132002512176,
two_seed_gs,5.5,0,0,0,1,0,1,1,7,23,0,23,0,,,,,0.11132060003001243,5.66,5.34,6687,7613,two_seed_gs,5.5,[0.3592592592592593],[0.09166666666666666],[1],[0],[0],[0.9132040999829769],[1],['image_r'],,,,,,664542,001,2023-05-19_00h47.37.695,staircase,2023.1.1,60.00132002512176,
two_seed_gs,5.5,0,0,0,1,0,1,1,7,24,0,24,0,,,,,0.10051130002830178,5.356,5.644,8394,2815,two_seed_gs,5.5,[-0.36666666666666664],[0.028703703703703703],[1],[0],[0],[1.0738869000924751],[1],['image_l'],,,,,,664542,001,2023-05-19_00h47.37.695,staircase,2023.1.1,60.00132002512176,
two_seed_gs,5.5,0,0,0,1,0,1,1,7,25,0,25,0,,,,,0.10111579997465014,5.37,5.63,12028,11263,two_seed_gs,5.5,[-0.3592592592592593],[0.049074074074074076],[1],[0],[0],[0.8894609999842942],[1],['image_l'],,,,,,664542,001,2023-05-19_00h47.37.695,staircase,2023.1.1,60.00132002512176,
two_seed_gs,5.5,0,0,0,1,0,1,1,7,26,0,26,0,,,,,0.10094569995999336,5.617,5.383,6034,8091,two_seed_gs,5.5,[0.36666666666666664],[0.01574074074074074],[1],[0],[0],[0.9065790000604466],[1],['image_r'],,,,,,664542,001,2023-05-19_00h47.37.695,staircase,2023.1.1,60.00132002512176,
two_seed_gs,5.5,0,0,0,1,0,1,1,7,27,0,27,0,,,,,0.10110889992211014,5.605,5.395,10612,8842,two_seed_gs,5.5,[-0.4388888888888889],[0.016666666666666666],[1],[0],[0],[2.023240500013344],[0],['image_l'],,,,,,664542,001,2023-05-19_00h47.37.695,staircase,2023.1.1,60.00132002512176,
two_seed_gs,5.5,0,0,0,1,0,1,1,7,28,0,28,0,,,,,0.10226509999483824,5.594,5.406,5706,8733,two_seed_gs,5.5,[0.4305555555555556],[0.022222222222222223],[1],[0],[0],[0.7386842999840155],[1],['image_r'],,,,,,664542,001,2023-05-19_00h47.37.695,staircase,2023.1.1,60.00132002512176,
two_seed_gs,3.5,0,0,0,1,0,2,2,3,0,0,0,0,,,,,0.1086035999469459,2.5,4.5,9047,9548,two_seed_gs,3.5,[-0.23148148148148148],[0.044444444444444446],[1],[0],[0],[1.240982300019823],[1],['image_l'],102.01891600003,102.01891600003,space,6.271629499970004,,664542,001,2023-05-19_00h47.37.695,staircase,2023.1.1,60.00132002512176,
two_seed_gs,3.5,0,0,0,1,0,2,2,3,1,0,1,0,,,,,0.11303630005568266,2.6,4.4,4027,7963,two_seed_gs,3.5,[-0.19444444444444445],[0.006481481481481481],[1],[0],[0],[0.9760317000327632],[1],['image_l'],,,,,,664542,001,2023-05-19_00h47.37.695,staircase,2023.1.1,60.00132002512176,
two_seed_gs,3.5,0,0,0,1,0,2,2,3,2,0,2,0,,,,,0.10920379997696728,2.69,4.3100000000000005,7141,2466,two_seed_gs,3.5,[-0.19444444444444445],[0.006481481481481481],[1],[0],[0],[1.0156012000516057],[1],['image_l'],,,,,,664542,001,2023-05-19_00h47.37.695,staircase,2023.1.1,60.00132002512176,
two_seed_gs,3.5,0,0,0,1,0,2,2,3,3,0,3,0,,,,,0.1055841000052169,2.771,4.229,5581,2176,two_seed_gs,3.5,[-0.19074074074074074],[0.006481481481481481],[1],[0],[0],[0.751616399968043],[1],['image_l'],,,,,,664542,001,2023-05-19_00h47.37.695,staircase,2023.1.1,60.00132002512176,
two_seed_gs,3.5,0,0,0,1,0,2,2,3,4,0,4,0,,,,,0.10273569996934384,4.156,2.844,641,6932,two_seed_gs,3.5,[0.37407407407407406],[0.003703703703703704],[1],[0],[0],[0.5547110000625253],[1],['image_r'],,,,,,664542,001,2023-05-19_00h47.37.695,staircase,2023.1.1,60.00132002512176,
two_seed_gs,3.5,0,0,0,1,0,2,2,3,5,0,5,0,,,,,0.10202430002391338,4.09,2.9099999999999997,5445,10432,two_seed_gs,3.5,[0.28425925925925927],[0.017592592592592594],[1],[0],[0],[0.6722060999600217],[1],['image_r'],,,,,,664542,001,2023-05-19_00h47.37.695,staircase,2023.1.1,60.00132002512176,
two_seed_gs,3.5,0,0,0,1,0,2,2,3,6,0,6,0,,,,,0.10471189999952912,4.031,2.969,6099,3087,two_seed_gs,3.5,[0.38796296296296295],[0.001851851851851852],[1],[0],[0],[0.8361683000111952],[1],['image_r'],,,,,,664542,001,2023-05-19_00h47.37.695,staircase,2023.1.1,60.00132002512176,
two_seed_gs,3.5,0,0,0,1,0,2,2,3,7,0,7,0,,,,,0.10209910001140088,3.9779999999999998,3.022,536,928,two_seed_gs,3.5,[0.30462962962962964],[0.02962962962962963],[1],[0],[0],[0.8228680000174791],[1],['image_r'],,,,,,664542,001,2023-05-19_00h47.37.695,staircase,2023.1.1,60.00132002512176,
two_seed_gs,3.5,0,0,0,1,0,2,2,3,8,0,8,0,,,,,0.10155699995812029,3.07,3.9299999999999997,11301,5880,two_seed_gs,3.5,[-0.26296296296296295],[0.020370370370370372],[1],[0],[0],[0.5388926001032814],[1],['image_l'],,,,,,664542,001,2023-05-19_00h47.37.695,staircase,2023.1.1,60.00132002512176,
two_seed_gs,3.5,0,0,0,1,0,2,2,3,9,0,9,0,,,,,0.10228089999873191,3.113,3.8869999999999996,10451,11453,two_seed_gs,3.5,[-0.26296296296296295],[0.021296296296296296],[1],[0],[0],[0.7385369999101385],[1],['image_l'],,,,,,664542,001,2023-05-19_00h47.37.695,staircase,2023.1.1,60.00132002512176,
two_seed_gs,3.5,0,0,0,1,0,2,2,3,10,0,10,0,,,,,0.1030962000368163,3.152,3.8479999999999994,2182,9729,two_seed_gs,3.5,[-0.26296296296296295],[0.021296296296296296],[1],[0],[0],[0.6377056000055745],[1],['image_l'],,,,,,664542,001,2023-05-19_00h47.37.695,staircase,2023.1.1,60.00132002512176,
two_seed_gs,3.5,0,0,0,1,0,2,2,3,11,0,11,0,,,,,0.10359530011191964,3.8129999999999993,3.1870000000000003,10746,8672,two_seed_gs,3.5,[0.29074074074074074],[0.006481481481481481],[1],[0],[0],[0.6379037000006065],[1],['image_r'],,,,,,664542,001,2023-05-19_00h47.37.695,staircase,2023.1.1,60.00132002512176,
two_seed_gs,3.5,0,0,0,1,0,2,2,3,12,0,12,0,,,,,0.10489319998305291,3.2180000000000004,3.781999999999999,10547,3911,two_seed_gs,3.5,[-0.30185185185185187],[0.011111111111111112],[1],[0],[0],[0.8189794999780133],[1],['image_l'],,,,,,664542,001,2023-05-19_00h47.37.695,staircase,2023.1.1,60.00132002512176,
two_seed_gs,3.5,0,0,0,1,0,2,2,3,13,0,13,0,,,,,0.1038912000367418,3.2460000000000004,3.753999999999999,9844,966,two_seed_gs,3.5,[-0.30185185185185187],[0.011111111111111112],[1],[0],[0],[0.737408300046809],[1],['image_l'],,,,,,664542,001,2023-05-19_00h47.37.695,staircase,2023.1.1,60.00132002512176,
two_seed_gs,3.5,0,0,0,1,0,2,2,3,14,0,14,0,,,,,0.1062219999730587,3.728999999999999,3.2710000000000004,11820,7988,two_seed_gs,3.5,[0.29074074074074074],[0.017592592592592594],[1],[0],[0],[1.067757899989374],[1],['image_r'],,,,,,664542,001,2023-05-19_00h47.37.695,staircase,2023.1.1,60.00132002512176,
two_seed_gs,3.5,0,0,0,1,0,2,2,3,15,0,15,0,,,,,0.10485309991054237,3.705999999999999,3.2940000000000005,7564,6379,two_seed_gs,3.5,[0.21851851851851853],[0.05740740740740741],[1],[0],[0],[1.4694028999656439],[1],['image_r'],,,,,,664542,001,2023-05-19_00h47.37.695,staircase,2023.1.1,60.00132002512176,
two_seed_gs,3.5,0,0,0,1,0,2,2,3,16,0,16,0,,,,,0.12374489998910576,3.684999999999999,3.3150000000000004,10443,4461,two_seed_gs,3.5,[0.23148148148148148],[0.0712962962962963],[1],[0],[0],[1.05037029995583],[1],['image_r'],,,,,,664542,001,2023-05-19_00h47.37.695,staircase,2023.1.1,60.00132002512176,
two_seed_gs,3.5,0,0,0,1,0,2,2,3,17,0,17,0,,,,,0.10276530007831752,3.6669999999999994,3.333,2870,3567,two_seed_gs,3.5,[0.22685185185185186],[0.1175925925925926],[1],[0],[0],[1.5047544999979436],[1],['image_r'],,,,,,664542,001,2023-05-19_00h47.37.695,staircase,2023.1.1,60.00132002512176,
two_seed_gs,3.5,0,0,0,1,0,2,2,3,18,0,18,0,,,,,0.10170100000686944,3.35,3.6499999999999995,8488,4339,two_seed_gs,3.5,[-0.23981481481481481],[0.10185185185185185],[1],[0],[0],[1.0727714999811724],[1],['image_l'],,,,,,664542,001,2023-05-19_00h47.37.695,staircase,2023.1.1,60.00132002512176,
two_seed_gs,3.5,0,0,0,1,0,2,2,3,19,0,19,0,,,,,0.10268629994243383,3.365,3.6349999999999993,985,9613,two_seed_gs,3.5,[-0.23981481481481481],[0.10185185185185185],[1],[0],[0],[1.8878936000401154],[1],['image_l'],,,,,,664542,001,2023-05-19_00h47.37.695,staircase,2023.1.1,60.00132002512176,
two_seed_gs,3.5,0,0,0,1,0,2,2,3,20,0,20,0,,,,,0.1026370000327006,3.378,3.6219999999999994,5505,11440,two_seed_gs,3.5,[-0.16574074074074074],[0.11296296296296296],[1],[0],[0],[0.8882312000496313],[1],['image_l'],,,,,,664542,001,2023-05-19_00h47.37.695,staircase,2023.1.1,60.00132002512176,
two_seed_gs,3.5,0,0,0,1,0,2,2,3,21,0,21,0,,,,,0.1091406000778079,3.6099999999999994,3.39,5922,2549,two_seed_gs,3.5,[0.3101851851851852],[0.0712962962962963],[1],[0],[0],[0.8822308999951929],[1],['image_r'],,,,,,664542,001,2023-05-19_00h47.37.695,staircase,2023.1.1,60.00132002512176,
two_seed_gs,3.5,0,0,0,1,0,2,2,3,22,0,22,0,,,,,0.1033415999263525,3.5989999999999993,3.4010000000000002,6029,8940,two_seed_gs,3.5,[0.32407407407407407],[0.07407407407407407],[1],[0],[0],[1.634806300047785],[1],['image_r'],,,,,,664542,001,2023-05-19_00h47.37.695,staircase,2023.1.1,60.00132002512176,
two_seed_gs,3.5,0,0,0,1,0,2,2,3,23,0,23,0,,,,,0.10421440005302429,3.5889999999999995,3.411,11524,1416,two_seed_gs,3.5,[0.22407407407407406],[0.07407407407407407],[1],[0],[0],[1.1866557999746874],[1],['image_r'],,,,,,664542,001,2023-05-19_00h47.37.695,staircase,2023.1.1,60.00132002512176,
two_seed_gs,3.5,0,0,0,1,0,2,2,3,24,0,24,0,,,,,0.11009839992038906,3.5799999999999996,3.42,3843,6059,two_seed_gs,3.5,[0.23333333333333334],[0.10092592592592593],[1],[0],[0],[0.880862099933438],[1],['image_r'],,,,,,664542,001,2023-05-19_00h47.37.695,staircase,2023.1.1,60.00132002512176,
two_seed_gs,3.5,0,0,0,1,0,2,2,3,25,0,25,0,,,,,0.10461520007811487,3.428,3.5719999999999996,2913,8352,two_seed_gs,3.5,[-0.3101851851851852],[0.09074074074074075],[1],[0],[0],[0.6864463000092655],[1],['image_l'],,,,,,664542,001,2023-05-19_00h47.37.695,staircase,2023.1.1,60.00132002512176,
two_seed_gs,3.5,0,0,0,1,0,2,2,3,26,0,26,0,,,,,0.10508590005338192,3.435,3.5649999999999995,11244,6046,two_seed_gs,3.5,[-0.2953703703703704],[0.09074074074074075],[1],[0],[0],[1.135141099919565],[1],['image_l'],,,,,,664542,001,2023-05-19_00h47.37.695,staircase,2023.1.1,60.00132002512176,
two_seed_gs,3.5,0,0,0,1,0,2,2,3,27,0,27,0,,,,,0.10385960002895445,3.5589999999999997,3.441,7271,12258,two_seed_gs,3.5,[0.287962962962963],[0.07592592592592592],[1],[0],[0],[1.6369247999973595],[1],['image_r'],,,,,,664542,001,2023-05-19_00h47.37.695,staircase,2023.1.1,60.00132002512176,
two_seed_gs,3.5,0,0,0,1,0,2,2,3,28,0,28,0,,,,,0.1030842000618577,3.4469999999999996,3.553,8567,6005,two_seed_gs,3.5,[-0.20277777777777778],[0.06666666666666667],[1],[0],[0],[1.4710151999024674],[1],['image_l'],,,,,,664542,001,2023-05-19_00h47.37.695,staircase,2023.1.1,60.00132002512176,
two_seed_gs,3.5,0,0,0,1,0,2,2,3,29,0,29,0,,,,,0.10213620006106794,3.4519999999999995,3.548,4331,3418,two_seed_gs,3.5,[0.2222222222222222],[0.04722222222222222],[1],[0],[0],[1.255914599983953],[0],['image_r'],,,,,,664542,001,2023-05-19_00h47.37.695,staircase,2023.1.1,60.00132002512176,
two_seed_gs,3.5,0,0,0,1,0,2,2,3,30,0,30,0,,,,,0.104537200066261,3.543,3.4569999999999994,1770,9834,two_seed_gs,3.5,[0.2111111111111111],[0.06944444444444445],[1],[0],[0],[1.0024013000074774],[1],['image_r'],,,,,,664542,001,2023-05-19_00h47.37.695,staircase,2023.1.1,60.00132002512176,
two_seed_gs,3.5,0,0,0,1,0,2,2,3,31,0,31,0,,,,,0.10357700008898973,3.4529999999999994,3.547,3005,2242,two_seed_gs,3.5,[-0.22870370370370371],[0.06759259259259259],[1],[0],[0],[1.4882621999131516],[1],['image_l'],,,,,,664542,001,2023-05-19_00h47.37.695,staircase,2023.1.1,60.00132002512176,
two_seed_gs,3.5,0,0,0,1,0,2,2,3,32,0,32,0,,,,,0.10212389996740967,3.4479999999999995,3.552,2094,6052,two_seed_gs,3.5,[0.1398148148148148],[0.005555555555555556],[1],[0],[0],[2.704924200079404],[0],['image_r'],,,,,,664542,001,2023-05-19_00h47.37.695,staircase,2023.1.1,60.00132002512176,
two_seed_gs,3,0,0,0,1,0,3,3,2,0,0,0,0,,,,,0.10415479994844645,4,2,302,1154,two_seed_gs,3,[0.2675925925925926],[0.025],[1],[0],[0],[1.1451205000048503],[1],['image_r'],149.06871820008382,149.06871820008382,space,0.9500789999729022,,664542,001,2023-05-19_00h47.37.695,staircase,2023.1.1,60.00132002512176,
two_seed_gs,3,0,0,0,1,0,3,3,2,1,0,1,0,,,,,0.10331749997567385,3.9,2.1,306,2430,two_seed_gs,3,[0.2814814814814815],[0.044444444444444446],[1],[0],[0],[0.569098399952054],[1],['image_r'],,,,,,664542,001,2023-05-19_00h47.37.695,staircase,2023.1.1,60.00132002512176,
two_seed_gs,3,0,0,0,1,0,3,3,2,2,0,2,0,,,,,0.11234610003884882,2.19,3.81,281,2304,two_seed_gs,3,[-0.26944444444444443],[0.07777777777777778],[1],[0],[0],[0.5117687999736518],[1],['image_l'],,,,,,664542,001,2023-05-19_00h47.37.695,staircase,2023.1.1,60.00132002512176,
two_seed_gs,3,0,0,0,1,0,3,3,2,3,0,3,0,,,,,0.10985519993118942,3.729,2.271,3715,11368,two_seed_gs,3,[0.3333333333333333],[0.04259259259259259],[1],[0],[0],[0.46417109994217753],[1],['image_r'],,,,,,664542,001,2023-05-19_00h47.37.695,staircase,2023.1.1,60.00132002512176,
two_seed_gs,3,0,0,0,1,0,3,3,2,4,0,4,0,,,,,0.10556719999294728,3.656,2.344,3250,3360,two_seed_gs,3,[0.22870370370370371],[0.05555555555555555],[1],[0],[0],[0.818895100033842],[1],['image_r'],,,,,,664542,001,2023-05-19_00h47.37.695,staircase,2023.1.1,60.00132002512176,
two_seed_gs,3,0,0,0,1,0,3,3,2,5,0,5,0,,,,,0.11255469999741763,3.5900000000000003,2.4099999999999997,2682,9347,two_seed_gs,3,[0.2611111111111111],[0.046296296296296294],[1],[0],[0],[0.6612003999762237],[1],['image_r'],,,,,,664542,001,2023-05-19_00h47.37.695,staircase,2023.1.1,60.00132002512176,
two_seed_gs,3,0,0,0,1,0,3,3,2,6,0,6,0,,,,,0.10342769999988377,2.469,3.531,5645,7190,two_seed_gs,3,[-0.22685185185185186],[0.06481481481481481],[1],[0],[0],[0.520837499992922],[1],['image_l'],,,,,,664542,001,2023-05-19_00h47.37.695,staircase,2023.1.1,60.00132002512176,
two_seed_gs,3,0,0,0,1,0,3,3,2,7,0,7,0,,,,,0.10783489991445094,3.478,2.522,10694,2558,two_seed_gs,3,[0.2101851851851852],[0.05925925925925926],[1],[0],[0],[0.666974600055255],[1],['image_r'],,,,,,664542,001,2023-05-19_00h47.37.695,staircase,2023.1.1,60.00132002512176,
two_seed_gs,3,0,0,0,1,0,3,3,2,8,0,8,0,,,,,0.10682180000003427,2.57,3.43,8372,6205,two_seed_gs,3,[-0.21574074074074073],[0.028703703703703703],[1],[0],[0],[0.8335629999637604],[1],['image_l'],,,,,,664542,001,2023-05-19_00h47.37.695,staircase,2023.1.1,60.00132002512176,
two_seed_gs,3,0,0,0,1,0,3,3,2,9,0,9,0,,,,,0.1047897000098601,2.613,3.387,3450,125,two_seed_gs,3,[-0.2212962962962963],[0.06481481481481481],[1],[0],[0],[0.7361947000026703],[1],['image_l'],,,,,,664542,001,2023-05-19_00h47.37.695,staircase,2023.1.1,60.00132002512176,
two_seed_gs,3,0,0,0,1,0,3,3,2,10,0,10,0,,,,,0.10291419993154705,2.652,3.348,3002,5521,two_seed_gs,3,[-0.2101851851851852],[0.0712962962962963],[1],[0],[0],[0.5558474999852479],[1],['image_l'],,,,,,664542,001,2023-05-19_00h47.37.695,staircase,2023.1.1,60.00132002512176,
two_seed_gs,3,0,0,0,1,0,3,3,2,11,0,11,0,,,,,0.10296170006040484,3.3129999999999997,2.6870000000000003,9785,863,two_seed_gs,3,[0.22407407407407406],[0.04537037037037037],[1],[0],[0],[1.5031179999932647],[1],['image_r'],,,,,,664542,001,2023-05-19_00h47.37.695,staircase,2023.1.1,60.00132002512176,
two_seed_gs,3,0,0,0,1,0,3,3,2,12,0,12,0,,,,,0.10330479999538511,2.7180000000000004,3.2819999999999996,8297,2698,two_seed_gs,3,[-0.1814814814814815],[0.03518518518518519],[1],[0],[0],[0.9033608000027016],[1],['image_l'],,,,,,664542,001,2023-05-19_00h47.37.695,staircase,2023.1.1,60.00132002512176,
two_seed_gs,3,0,0,0,1,0,3,3,2,13,0,13,0,,,,,0.10385499999392778,2.7460000000000004,3.2539999999999996,1699,5022,two_seed_gs,3,[-0.20555555555555555],[-0.001851851851851852],[1],[0],[0],[4.203809699974954],[1],['image_l'],,,,,,664542,001,2023-05-19_00h47.37.695,staircase,2023.1.1,60.00132002512176,
two_seed_gs,3,0,0,0,1,0,3,3,2,14,0,14,0,,,,,0.10242130002006888,3.2289999999999996,2.7710000000000004,11167,3986,two_seed_gs,3,[0.2777777777777778],[-0.02962962962962963],[1],[0],[0],[0.9380589000647888],[1],['image_r'],,,,,,664542,001,2023-05-19_00h47.37.695,staircase,2023.1.1,60.00132002512176,
two_seed_gs,3,0,0,0,1,0,3,3,2,15,0,15,0,,,,,0.10267350007779896,3.2059999999999995,2.7940000000000005,2433,7590,two_seed_gs,3,[0.22870370370370371],[-0.023148148148148147],[1],[0],[0],[1.238259800011292],[1],['image_r'],,,,,,664542,001,2023-05-19_00h47.37.695,staircase,2023.1.1,60.00132002512176,
two_seed_gs,3,0,0,0,1,0,3,3,2,16,0,16,0,,,,,0.10175369994249195,2.8150000000000004,3.1849999999999996,3379,11933,two_seed_gs,3,[-0.22962962962962963],[-0.024074074074074074],[1],[0],[0],[1.306625600089319],[1],['image_l'],,,,,,664542,001,2023-05-19_00h47.37.695,staircase,2023.1.1,60.00132002512176,
two_seed_gs,3,0,0,0,1,0,3,3,2,17,0,17,0,,,,,0.10358849994372576,2.833,3.167,5049,10399,two_seed_gs,3,[-0.21388888888888888],[-0.019444444444444445],[1],[0],[0],[2.3699078001081944],[1],['image_l'],,,,,,664542,001,2023-05-19_00h47.37.695,staircase,2023.1.1,60.00132002512176,
two_seed_gs,3,0,0,0,1,0,3,3,2,18,0,18,0,,,,,0.10275950003415346,2.85,3.15,11828,9777,two_seed_gs,3,[-0.17685185185185184],[-0.017592592592592594],[1],[0],[0],[1.171733400085941],[1],['image_l'],,,,,,664542,001,2023-05-19_00h47.37.695,staircase,2023.1.1,60.00132002512176,
two_seed_gs,3,0,0,0,1,0,3,3,2,19,0,19,0,,,,,0.10149409994482994,2.865,3.135,10474,9713,two_seed_gs,3,[-0.15925925925925927],[0.04351851851851852],[1],[0],[0],[2.40638439997565],[1],['image_l'],,,,,,664542,001,2023-05-19_00h47.37.695,staircase,2023.1.1,60.00132002512176,
two_seed_gs,3,0,0,0,1,0,3,3,2,20,0,20,0,,,,,0.10262210003565997,3.122,2.878,5122,11572,two_seed_gs,3,[0.1787037037037037],[0.03888888888888889],[1],[0],[0],[1.9889456999953836],[1],['image_r'],,,,,,664542,001,2023-05-19_00h47.37.695,staircase,2023.1.1,60.00132002512176,
two_seed_gs,3,0,0,0,1,0,3,3,2,21,0,21,0,,,,,0.10314939997624606,2.89,3.11,10065,10060,two_seed_gs,3,[-0.17777777777777778],[0.018518518518518517],[1],[0],[0],[1.4045931999571621],[1],['image_l'],,,,,,664542,001,2023-05-19_00h47.37.695,staircase,2023.1.1,60.00132002512176,
two_seed_gs,3,0,0,0,1,0,3,3,2,22,0,22,0,,,,,0.10271470004227012,2.9010000000000002,3.0989999999999998,1487,10016,two_seed_gs,3,[0.15],[0.05925925925925926],[1],[0],[0],[2.3390899000223726],[0],['image_r'],,,,,,664542,001,2023-05-19_00h47.37.695,staircase,2023.1.1,60.00132002512176,
two_seed_gs,3,0,0,0,1,0,3,3,2,23,0,23,0,,,,,0.10327239998150617,2.911,3.089,3350,130,two_seed_gs,3,[-0.1935185185185185],[0.041666666666666664],[1],[0],[0],[1.8035405999980867],[1],['image_l'],,,,,,664542,001,2023-05-19_00h47.37.695,staircase,2023.1.1,60.00132002512176,
two_seed_gs,3,0,0,0,1,0,3,3,2,24,0,24,0,,,,,0.10968829994089901,2.902,3.098,4940,4315,two_seed_gs,3,[-0.15],[0.02962962962962963],[1],[0],[0],[3.5313511000713333],[1],['image_l'],,,,,,664542,001,2023-05-19_00h47.37.695,staircase,2023.1.1,60.00132002512176,
two_seed_gs,3,0,0,0,1,0,3,3,2,25,0,25,0,,,,,0.1045941999182105,3.1079999999999997,2.8920000000000003,7155,761,two_seed_gs,3,[0.2462962962962963],[0.06851851851851852],[1],[0],[0],[2.2029015999287367],[1],['image_r'],,,,,,664542,001,2023-05-19_00h47.37.695,staircase,2023.1.1,60.00132002512176,
two_seed_gs,3,0,0,0,1,0,3,3,2,26,0,26,0,,,,,0.10373079997953027,3.1189999999999998,2.8810000000000002,612,7410,two_seed_gs,3,[0.22592592592592592],[0.06574074074074074],[1],[0],[0],[1.3205475999275222],[1],['image_r'],,,,,,664542,001,2023-05-19_00h47.37.695,staircase,2023.1.1,60.00132002512176,
two_seed_gs,3,0,0,0,1,0,3,3,2,27,0,27,0,,,,,0.10303200001362711,2.8930000000000002,3.1069999999999998,4577,10910,two_seed_gs,3,[-0.27037037037037037],[0.04351851851851852],[1],[0],[0],[0.8203271999955177],[1],['image_l'],,,,,,664542,001,2023-05-19_00h47.37.695,staircase,2023.1.1,60.00132002512176,
two_seed_gs,3,0,0,0,1,0,3,3,2,28,0,28,0,,,,,0.10338630003388971,2.9040000000000004,3.0959999999999996,1595,2868,two_seed_gs,3,[-0.27037037037037037],[0.044444444444444446],[1],[0],[0],[1.0211661000503227],[1],['image_l'],,,,,,664542,001,2023-05-19_00h47.37.695,staircase,2023.1.1,60.00132002512176,
two_seed_gs,3,0,0,0,1,0,3,3,2,29,0,29,0,,,,,0.10283679992426187,3.086,2.914,5421,6481,two_seed_gs,3,[0.30185185185185187],[0.05185185185185185],[1],[0],[0],[0.9717973999213427],[1],['image_r'],,,,,,664542,001,2023-05-19_00h47.37.695,staircase,2023.1.1,60.00132002512176,
two_seed_gs,3,0,0,0,1,0,3,3,2,30,0,30,0,,,,,0.10221269994508475,3.077,2.923,11053,2085,two_seed_gs,3,[0.17592592592592593],[0.07314814814814814],[1],[0],[0],[2.288917399942875],[1],['image_r'],,,,,,664542,001,2023-05-19_00h47.37.695,staircase,2023.1.1,60.00132002512176,
two_seed_gs,3,0,0,0,1,0,3,3,2,31,0,31,0,,,,,0.103188700042665,2.931,3.069,4213,9218,two_seed_gs,3,[-0.31574074074074077],[0.08796296296296297],[1],[0],[0],[1.6544664000393823],[1],['image_l'],,,,,,664542,001,2023-05-19_00h47.37.695,staircase,2023.1.1,60.00132002512176,
two_seed_gs,3,0,0,0,1,0,3,3,2,32,0,32,0,,,,,0.10216619994025677,3.062,2.938,1545,1053,two_seed_gs,3,[0.16018518518518518],[0.09722222222222222],[1],[0],[0],[0.9890324000734836],[1],['image_r'],,,,,,664542,001,2023-05-19_00h47.37.695,staircase,2023.1.1,60.00132002512176,
two_seed_gs,3,0,0,0,1,0,3,3,2,33,0,33,0,,,,,0.104700299911201,3.056,2.944,11964,9839,two_seed_gs,3,[-0.2222222222222222],[0.06111111111111111],[1],[0],[0],[3.052926899981685],[0],['image_l'],,,,,,664542,001,2023-05-19_00h47.37.695,staircase,2023.1.1,60.00132002512176,
two_seed_gs,3,0,0,0,1,0,3,3,2,34,0,34,0,,,,,0.10269349999725819,3.0500000000000003,2.9499999999999997,5959,7669,two_seed_gs,3,[0.15462962962962962],[0.10833333333333334],[1],[0],[0],[1.904468100052327],[1],['image_r'],,,,,,664542,001,2023-05-19_00h47.37.695,staircase,2023.1.1,60.00132002512176,
two_seed_gs,3,0,0,0,1,0,3,3,2,35,0,35,0,,,,,0.10255850001703948,3.055,2.945,1318,5577,two_seed_gs,3,[0.3296296296296296],[0.06111111111111111],[1],[0],[0],[2.0051927999593318],[1],['image_r'],,,,,,664542,001,2023-05-19_00h47.37.695,staircase,2023.1.1,60.00132002512176,
two_seed_gs,3,0,0,0,1,0,3,3,2,36,0,36,0,,,,,0.1008579001063481,3.061,2.939,3277,6395,two_seed_gs,3,[0.19537037037037036],[0.058333333333333334],[1],[0],[0],[1.3903332999907434],[1],['image_r'],,,,,,664542,001,2023-05-19_00h47.37.695,staircase,2023.1.1,60.00132002512176,
two_seed_gs,3,0,0,0,1,0,3,3,2,37,0,37,0,,,,,0.10368870000820607,2.9330000000000003,3.0669999999999997,2703,867,two_seed_gs,3,[-0.23425925925925925],[0.06759259259259259],[1],[0],[0],[2.3709655000129715],[1],['image_l'],,,,,,664542,001,2023-05-19_00h47.37.695,staircase,2023.1.1,60.00132002512176,
two_seed_gs,4.5,0,0,0,1,0,4,4,5,0,0,0,0,,,,,0.10808510007336736,3.5,5.5,2681,9485,two_seed_gs,4.5,[-0.25833333333333336],[0.05185185185185185],[1],[0],[0],[1.2412704000016674],[1],['image_l'],212.38498159998562,212.38498159998562,space,2.4983508998993784,,664542,001,2023-05-19_00h47.37.695,staircase,2023.1.1,60.00132002512176,
two_seed_gs,4.5,0,0,0,1,0,4,4,5,1,0,1,0,,,,,0.1041514000389725,5.4,3.6,8067,3996,two_seed_gs,4.5,[0.3472222222222222],[0.03425925925925926],[1],[0],[0],[0.5518018000293523],[1],['image_r'],,,,,,664542,001,2023-05-19_00h47.37.695,staircase,2023.1.1,60.00132002512176,
two_seed_gs,4.5,0,0,0,1,0,4,4,5,2,0,2,0,,,,,0.10325220006052405,5.3100000000000005,3.69,11685,9167,two_seed_gs,4.5,[0.2361111111111111],[0.0787037037037037],[1],[0],[0],[0.8545456000138074],[1],['image_r'],,,,,,664542,001,2023-05-19_00h47.37.695,staircase,2023.1.1,60.00132002512176,
two_seed_gs,4.5,0,0,0,1,0,4,4,5,3,0,3,0,,,,,0.10208219999913126,3.771,5.229,807,12238,two_seed_gs,4.5,[-0.387037037037037],[0.002777777777777778],[1],[0],[0],[0.574725899961777],[1],['image_l'],,,,,,664542,001,2023-05-19_00h47.37.695,staircase,2023.1.1,60.00132002512176,
two_seed_gs,4.5,0,0,0,1,0,4,4,5,4,0,4,0,,,,,0.10125299997162074,3.844,5.156,6697,3859,two_seed_gs,4.5,[-0.37962962962962965],[0.11388888888888889],[1],[0],[0],[0.6709771999157965],[1],['image_l'],,,,,,664542,001,2023-05-19_00h47.37.695,staircase,2023.1.1,60.00132002512176,
two_seed_gs,4.5,0,0,0,1,0,4,4,5,5,0,5,0,,,,,0.10364860005211085,5.09,3.9099999999999997,11372,11518,two_seed_gs,4.5,[0.3416666666666667],[0.05277777777777778],[1],[0],[0],[0.7197943999199197],[1],['image_r'],,,,,,664542,001,2023-05-19_00h47.37.695,staircase,2023.1.1,60.00132002512176,
two_seed_gs,4.5,0,0,0,1,0,4,4,5,6,0,6,0,,,,,0.10216220002621412,3.969,5.031,9734,7482,two_seed_gs,4.5,[-0.26666666666666666],[0.030555555555555555],[1],[0],[0],[1.6052186000160873],[1],['image_l'],,,,,,664542,001,2023-05-19_00h47.37.695,staircase,2023.1.1,60.00132002512176,
two_seed_gs,4.5,0,0,0,1,0,4,4,5,7,0,7,0,,,,,0.1017226999392733,4.022,4.978,225,5456,two_seed_gs,4.5,[-0.26666666666666666],[0.030555555555555555],[1],[0],[0],[0.6725848000496626],[1],['image_l'],,,,,,664542,001,2023-05-19_00h47.37.695,staircase,2023.1.1,60.00132002512176,
two_seed_gs,4.5,0,0,0,1,0,4,4,5,8,0,8,0,,,,,0.09989479999057949,4.93,4.07,9070,7563,two_seed_gs,4.5,[0.375],[0.03888888888888889],[1],[0],[0],[0.9741787000093609],[1],['image_r'],,,,,,664542,001,2023-05-19_00h47.37.695,staircase,2023.1.1,60.00132002512176,
two_seed_gs,4.5,0,0,0,1,0,4,4,5,9,0,9,0,,,,,0.10216750006657094,4.887,4.113,7830,9938,two_seed_gs,4.5,[0.375],[0.03888888888888889],[1],[0],[0],[0.9054784999461845],[1],['image_r'],,,,,,664542,001,2023-05-19_00h47.37.695,staircase,2023.1.1,60.00132002512176,
two_seed_gs,4.5,0,0,0,1,0,4,4,5,10,0,10,0,,,,,0.10554490005597472,4.152,4.848,1100,6277,two_seed_gs,4.5,[-0.20925925925925926],[0.04722222222222222],[1],[0],[0],[0.7867598999291658],[1],['image_l'],,,,,,664542,001,2023-05-19_00h47.37.695,staircase,2023.1.1,60.00132002512176,
two_seed_gs,4.5,0,0,0,1,0,4,4,5,11,0,11,0,,,,,0.1030492999125272,4.813,4.187,3588,9424,two_seed_gs,4.5,[0.3296296296296296],[0.05555555555555555],[1],[0],[0],[0.9516688000876456],[1],['image_r'],,,,,,664542,001,2023-05-19_00h47.37.695,staircase,2023.1.1,60.00132002512176,
two_seed_gs,4.5,0,0,0,1,0,4,4,5,12,0,12,0,,,,,0.1035558000439778,4.218,4.782,3590,11489,two_seed_gs,4.5,[-0.2462962962962963],[0.05092592592592592],[1],[0],[0],[1.0373025999870151],[1],['image_l'],,,,,,664542,001,2023-05-19_00h47.37.695,staircase,2023.1.1,60.00132002512176,
two_seed_gs,4.5,0,0,0,1,0,4,4,5,13,0,13,0,,,,,0.10135519993491471,4.2459999999999996,4.7540000000000004,10350,7818,two_seed_gs,4.5,[-0.2462962962962963],[0.05092592592592592],[1],[0],[0],[0.5726310999598354],[1],['image_l'],,,,,,664542,001,2023-05-19_00h47.37.695,staircase,2023.1.1,60.00132002512176,
two_seed_gs,4.5,0,0,0,1,0,4,4,5,14,0,14,0,,,,,0.1019351000431925,4.271,4.729,2111,7814,two_seed_gs,4.5,[-0.2462962962962963],[0.05092592592592592],[1],[0],[0],[1.1387529000639915],[1],['image_l'],,,,,,664542,001,2023-05-19_00h47.37.695,staircase,2023.1.1,60.00132002512176,
two_seed_gs,4.5,0,0,0,1,0,4,4,5,15,0,15,0,,,,,0.10171000007539988,4.294,4.706,3834,7225,two_seed_gs,4.5,[-0.2462962962962963],[0.05092592592592592],[1],[0],[0],[0.7391560999676585],[1],['image_l'],,,,,,664542,001,2023-05-19_00h47.37.695,staircase,2023.1.1,60.00132002512176,
two_seed_gs,4.5,0,0,0,1,0,4,4,5,16,0,16,0,,,,,0.10434700001496822,4.3149999999999995,4.6850000000000005,7691,4759,two_seed_gs,4.5,[-0.3453703703703704],[0.04537037037037037],[1],[0],[0],[1.10380919999443],[1],['image_l'],,,,,,664542,001,2023-05-19_00h47.37.695,staircase,2023.1.1,60.00132002512176,
two_seed_gs,4.5,0,0,0,1,0,4,4,5,17,0,17,0,,,,,0.10186319996137172,4.334,4.666,5104,8344,two_seed_gs,4.5,[-0.1814814814814815],[0.09722222222222222],[1],[0],[0],[1.7893809000961483],[1],['image_l'],,,,,,664542,001,2023-05-19_00h47.37.695,staircase,2023.1.1,60.00132002512176,
two_seed_gs,4.5,0,0,0,1,0,4,4,5,18,0,18,0,,,,,0.10178819997236133,4.351,4.649,1653,1641,two_seed_gs,4.5,[-0.1814814814814815],[0.09722222222222222],[1],[0],[0],[2.355722100008279],[1],['image_l'],,,,,,664542,001,2023-05-19_00h47.37.695,staircase,2023.1.1,60.00132002512176,
two_seed_gs,4.5,0,0,0,1,0,4,4,5,19,0,19,0,,,,,0.10195899999234825,4.366,4.634,4640,12288,two_seed_gs,4.5,[-0.1814814814814815],[0.09722222222222222],[1],[0],[0],[0.9886496999533847],[1],['image_l'],,,,,,664542,001,2023-05-19_00h47.37.695,staircase,2023.1.1,60.00132002512176,
two_seed_gs,4.5,0,0,0,1,0,4,4,5,20,0,20,0,,,,,0.10155200003646314,4.379,4.621,5208,7163,two_seed_gs,4.5,[-0.27314814814814814],[0.03888888888888889],[1],[0],[0],[2.4220405999803916],[1],['image_l'],,,,,,664542,001,2023-05-19_00h47.37.695,staircase,2023.1.1,60.00132002512176,
two_seed_gs,4.5,0,0,0,1,0,4,4,5,21,0,21,0,,,,,0.10355230001732707,4.609000000000001,4.390999999999999,5221,7300,two_seed_gs,4.5,[-0.30462962962962964],[0.053703703703703705],[1],[0],[0],[1.4380774999735877],[0],['image_l'],,,,,,664542,001,2023-05-19_00h47.37.695,staircase,2023.1.1,60.00132002512176,
two_seed_gs,4.5,0,0,0,1,0,4,4,5,22,0,22,0,,,,,0.10292440000921488,4.598000000000001,4.401999999999999,6048,9723,two_seed_gs,4.5,[0.3],[0.046296296296296294],[1],[0],[0],[0.9713452999712899],[1],['image_r'],,,,,,664542,001,2023-05-19_00h47.37.695,staircase,2023.1.1,60.00132002512176,
two_seed_gs,4.5,0,0,0,1,0,4,4,5,23,0,23,0,,,,,0.10198549996130168,4.6080000000000005,4.3919999999999995,7383,7550,two_seed_gs,4.5,[0.3111111111111111],[0.0824074074074074],[1],[0],[0],[1.3397645000368357],[1],['image_r'],,,,,,664542,001,2023-05-19_00h47.37.695,staircase,2023.1.1,60.00132002512176,
two_seed_gs,4.5,0,0,0,1,0,4,4,5,24,0,24,0,,,,,0.10380530008114874,4.380999999999999,4.619000000000001,1655,2217,two_seed_gs,4.5,[-0.29907407407407405],[0.058333333333333334],[1],[0],[0],[1.604191099992022],[1],['image_l'],,,,,,664542,001,2023-05-19_00h47.37.695,staircase,2023.1.1,60.00132002512176,
two_seed_gs,4.5,0,0,0,1,0,4,4,5,25,0,25,0,,,,,0.10722590005025268,4.631,4.369,1312,1048,two_seed_gs,4.5,[0.45740740740740743],[0.05648148148148148],[1],[0],[0],[3.381839400040917],[1],['image_r'],,,,,,664542,001,2023-05-19_00h47.37.695,staircase,2023.1.1,60.00132002512176,
two_seed_gs,4.5,0,0,0,1,0,4,4,5,26,0,26,0,,,,,0.10247869999147952,4.618,4.382,1022,6974,two_seed_gs,4.5,[0.21851851851851853],[0.1287037037037037],[1],[0],[0],[1.6885877999011427],[1],['image_r'],,,,,,664542,001,2023-05-19_00h47.37.695,staircase,2023.1.1,60.00132002512176,
two_seed_gs,4.5,0,0,0,1,0,4,4,5,27,0,27,0,,,,,0.10311640007421374,4.393999999999999,4.606000000000001,8556,6949,two_seed_gs,4.5,[-0.24722222222222223],[0.08888888888888889],[1],[0],[0],[1.6548581999959424],[1],['image_l'],,,,,,664542,001,2023-05-19_00h47.37.695,staircase,2023.1.1,60.00132002512176,
two_seed_gs,4.5,0,0,0,1,0,4,4,5,28,0,28,0,,,,,0.10214849992189556,4.595000000000001,4.404999999999999,6666,6225,two_seed_gs,4.5,[0.23148148148148148],[0.12685185185185185],[1],[0],[0],[2.288477500085719],[1],['image_r'],,,,,,664542,001,2023-05-19_00h47.37.695,staircase,2023.1.1,60.00132002512176,
two_seed_gs,4.5,0,0,0,1,0,4,4,5,29,0,29,0,,,,,0.10140769998542964,4.585000000000001,4.414999999999999,1451,10431,two_seed_gs,4.5,[-0.22685185185185186],[0.11944444444444445],[1],[0],[0],[2.473007599939592],[0],['image_l'],,,,,,664542,001,2023-05-19_00h47.37.695,staircase,2023.1.1,60.00132002512176,
two_seed_gs,4,0,0,0,1,0,5,5,4,0,0,0,0,,,,,0.10823300003539771,5,3,10441,12176,two_seed_gs,4,[0.30462962962962964],[0.007407407407407408],[1],[0],[0],[1.02447119995486],[1],['image_r'],260.0513685999904,260.0513685999904,space,2.0971498999278992,,664542,001,2023-05-19_00h47.37.695,staircase,2023.1.1,60.00132002512176,
two_seed_gs,4,0,0,0,1,0,5,5,4,1,0,1,0,,,,,0.1020845000166446,3.1,4.9,9291,6773,two_seed_gs,4,[-0.25462962962962965],[0.06481481481481481],[1],[0],[0],[0.537210600101389],[1],['image_l'],,,,,,664542,001,2023-05-19_00h47.37.695,staircase,2023.1.1,60.00132002512176,
two_seed_gs,4,0,0,0,1,0,5,5,4,2,0,2,0,,,,,0.10341079998761415,3.19,4.8100000000000005,11130,8496,two_seed_gs,4,[-0.22962962962962963],[0.06481481481481481],[1],[0],[0],[0.5206687999889255],[1],['image_l'],,,,,,664542,001,2023-05-19_00h47.37.695,staircase,2023.1.1,60.00132002512176,
two_seed_gs,4,0,0,0,1,0,5,5,4,3,0,3,0,,,,,0.10251009999774396,4.729,3.271,5282,5916,two_seed_gs,4,[0.22962962962962963],[0.013888888888888888],[1],[0],[0],[0.6879776000278071],[1],['image_r'],,,,,,664542,001,2023-05-19_00h47.37.695,staircase,2023.1.1,60.00132002512176,
two_seed_gs,4,0,0,0,1,0,5,5,4,4,0,4,0,,,,,0.10517130000516772,3.344,4.656,539,3454,two_seed_gs,4,[-0.31851851851851853],[-0.001851851851851852],[1],[0],[0],[0.5484728999435902],[1],['image_l'],,,,,,664542,001,2023-05-19_00h47.37.695,staircase,2023.1.1,60.00132002512176,
two_seed_gs,4,0,0,0,1,0,5,5,4,5,0,5,0,,,,,0.10044519999064505,4.59,3.4099999999999997,4519,9655,two_seed_gs,4,[0.33240740740740743],[-0.005555555555555556],[1],[0],[0],[0.6419418000150472],[1],['image_r'],,,,,,664542,001,2023-05-19_00h47.37.695,staircase,2023.1.1,60.00132002512176,
two_seed_gs,4,0,0,0,1,0,5,5,4,6,0,6,0,,,,,0.10136249999050051,4.531,3.469,10402,11635,two_seed_gs,4,[0.30277777777777776],[0.004629629629629629],[1],[0],[0],[0.621488600037992],[1],['image_r'],,,,,,664542,001,2023-05-19_00h47.37.695,staircase,2023.1.1,60.00132002512176,
two_seed_gs,4,0,0,0,1,0,5,5,4,7,0,7,0,,,,,0.10993820009753108,3.522,4.478,9367,10903,two_seed_gs,4,[-0.24351851851851852],[0.011111111111111112],[1],[0],[0],[0.5154108999995515],[1],['image_l'],,,,,,664542,001,2023-05-19_00h47.37.695,staircase,2023.1.1,60.00132002512176,
two_seed_gs,4,0,0,0,1,0,5,5,4,8,0,8,0,,,,,0.11083170003257692,4.43,3.57,10930,808,two_seed_gs,4,[0.35185185185185186],[0.012962962962962963],[1],[0],[0],[0.8597986999666318],[1],['image_r'],,,,,,664542,001,2023-05-19_00h47.37.695,staircase,2023.1.1,60.00132002512176,
two_seed_gs,4,0,0,0,1,0,5,5,4,9,0,9,0,,,,,0.10286069998983294,4.387,3.613,4115,7109,two_seed_gs,4,[0.2222222222222222],[0.016666666666666666],[1],[0],[0],[2.438243499957025],[1],['image_r'],,,,,,664542,001,2023-05-19_00h47.37.695,staircase,2023.1.1,60.00132002512176,
two_seed_gs,4,0,0,0,1,0,5,5,4,10,0,10,0,,,,,0.1060658999485895,4.348,3.652,12250,4246,two_seed_gs,4,[0.32314814814814813],[-0.009259259259259259],[1],[0],[0],[1.668363899923861],[1],['image_r'],,,,,,664542,001,2023-05-19_00h47.37.695,staircase,2023.1.1,60.00132002512176,
two_seed_gs,4,0,0,0,1,0,5,5,4,11,0,11,0,,,,,0.10447540006134659,3.6870000000000003,4.313,3207,2107,two_seed_gs,4,[-0.2916666666666667],[0.037037037037037035],[1],[0],[0],[0.5197459999471903],[1],['image_l'],,,,,,664542,001,2023-05-19_00h47.37.695,staircase,2023.1.1,60.00132002512176,
two_seed_gs,4,0,0,0,1,0,5,5,4,12,0,12,0,,,,,0.10554480005521327,3.7180000000000004,4.282,8249,12144,two_seed_gs,4,[-0.22592592592592592],[0.03611111111111111],[1],[0],[0],[0.6851080999476835],[1],['image_l'],,,,,,664542,001,2023-05-19_00h47.37.695,staircase,2023.1.1,60.00132002512176,
two_seed_gs,4,0,0,0,1,0,5,5,4,13,0,13,0,,,,,0.10299140005372465,3.7460000000000004,4.2540000000000004,2697,10677,two_seed_gs,4,[-0.22592592592592592],[0.03611111111111111],[1],[0],[0],[0.9041951999533921],[1],['image_l'],,,,,,664542,001,2023-05-19_00h47.37.695,staircase,2023.1.1,60.00132002512176,
two_seed_gs,4,0,0,0,1,0,5,5,4,14,0,14,0,,,,,0.10196579992771149,3.7710000000000004,4.229,11612,3518,two_seed_gs,4,[-0.22592592592592592],[0.03611111111111111],[1],[0],[0],[1.0725828999420628],[1],['image_l'],,,,,,664542,001,2023-05-19_00h47.37.695,staircase,2023.1.1,60.00132002512176,
two_seed_gs,4,0,0,0,1,0,5,5,4,15,0,15,0,,,,,0.10263360000681132,3.7940000000000005,4.206,5970,8664,two_seed_gs,4,[-0.15925925925925927],[0.012037037037037037],[1],[0],[0],[3.955276699969545],[1],['image_l'],,,,,,664542,001,2023-05-19_00h47.37.695,staircase,2023.1.1,60.00132002512176,
two_seed_gs,4,0,0,0,1,0,5,5,4,16,0,16,0,,,,,0.10232320008799434,3.8150000000000004,4.1850000000000005,3135,2098,two_seed_gs,4,[-0.15925925925925927],[0.012037037037037037],[1],[0],[0],[1.6888418999733403],[1],['image_l'],,,,,,664542,001,2023-05-19_00h47.37.695,staircase,2023.1.1,60.00132002512176,
two_seed_gs,4,0,0,0,1,0,5,5,4,17,0,17,0,,,,,0.10230239992961287,4.166,3.833,10630,3048,two_seed_gs,4,[0.2388888888888889],[0.000925925925925926],[1],[0],[0],[1.0398640000494197],[1],['image_r'],,,,,,664542,001,2023-05-19_00h47.37.695,staircase,2023.1.1,60.00132002512176,
two_seed_gs,4,0,0,0,1,0,5,5,4,18,0,18,0,,,,,0.10207010002341121,4.149,3.85,10540,10787,two_seed_gs,4,[0.24074074074074073],[0.006481481481481481],[1],[0],[0],[0.8039880000287667],[1],['image_r'],,,,,,664542,001,2023-05-19_00h47.37.695,staircase,2023.1.1,60.00132002512176,
two_seed_gs,4,0,0,0,1,0,5,5,4,19,0,19,0,,,,,0.10294360003899783,4.134,3.865,6506,5916,two_seed_gs,4,[0.25092592592592594],[0.10925925925925926],[1],[0],[0],[2.2879088000627235],[1],['image_r'],,,,,,664542,001,2023-05-19_00h47.37.695,staircase,2023.1.1,60.00132002512176,
two_seed_gs,4,0,0,0,1,0,5,5,4,20,0,20,0,,,,,0.10295600001700222,4.121,3.878,7437,2974,two_seed_gs,4,[0.2175925925925926],[0.08703703703703704],[1],[0],[0],[1.1212806000839919],[1],['image_r'],,,,,,664542,001,2023-05-19_00h47.37.695,staircase,2023.1.1,60.00132002512176,
two_seed_gs,4,0,0,0,1,0,5,5,4,21,0,21,0,,,,,0.10420910001266748,4.109000000000001,3.89,9028,6030,two_seed_gs,4,[0.18611111111111112],[0.1824074074074074],[1],[0],[0],[1.7198609000770375],[1],['image_r'],,,,,,664542,001,2023-05-19_00h47.37.695,staircase,2023.1.1,60.00132002512176,
two_seed_gs,4,0,0,0,1,0,5,5,4,22,0,22,0,,,,,0.10213559994008392,4.098000000000001,3.9010000000000002,7984,6351,two_seed_gs,4,[-0.17592592592592593],[-0.023148148148148147],[1],[0],[0],[1.4387093000113964],[0],['image_l'],,,,,,664542,001,2023-05-19_00h47.37.695,staircase,2023.1.1,60.00132002512176,
two_seed_gs,4,0,0,0,1,0,5,5,4,23,0,23,0,,,,,0.10409110004547983,4.088000000000001,3.911,4871,12241,two_seed_gs,4,[-0.19166666666666668],[-0.11018518518518519],[1],[0],[0],[2.6214679999975488],[0],['image_l'],,,,,,664542,001,2023-05-19_00h47.37.695,staircase,2023.1.1,60.00132002512176,
two_seed_gs,4,0,0,0,1,0,5,5,4,24,0,24,0,,,,,0.11388359998818487,3.902,4.097000000000001,6866,11538,two_seed_gs,4,[-0.13425925925925927],[0.044444444444444446],[1],[0],[0],[0.9254803000949323],[1],['image_l'],,,,,,664542,001,2023-05-19_00h47.37.695,staircase,2023.1.1,60.00132002512176,
two_seed_gs,4,0,0,0,1,0,5,5,4,25,0,25,0,,,,,0.10330730001442134,4.107000000000001,3.8920000000000003,2328,5946,two_seed_gs,4,[0.18333333333333332],[0.10925925925925926],[1],[0],[0],[1.3206302999751642],[1],['image_r'],,,,,,664542,001,2023-05-19_00h47.37.695,staircase,2023.1.1,60.00132002512176,
two_seed_gs,2.5,0,0,0,1,0,6,6,1,0,0,0,0,,,,,0.10915239993482828,1.5,3.5,10783,4447,two_seed_gs,2.5,[-0.1425925925925926],[0.053703703703703705],[1],[0],[0],[0.890271499985829],[1],['image_l'],299.4844692000188,299.4844692000188,space,1.519130300031975,,664542,001,2023-05-19_00h47.37.695,staircase,2023.1.1,60.00132002512176,
two_seed_gs,2.5,0,0,0,1,0,6,6,1,1,0,1,0,,,,,0.10423429997172207,3.4,1.6,4428,9047,two_seed_gs,2.5,[0.3527777777777778],[0.017592592592592594],[1],[0],[0],[0.5348747000098228],[1],['image_r'],,,,,,664542,001,2023-05-19_00h47.37.695,staircase,2023.1.1,60.00132002512176,
two_seed_gs,2.5,0,0,0,1,0,6,6,1,2,0,2,0,,,,,0.10388790001161397,1.6900000000000002,3.31,10443,3596,two_seed_gs,2.5,[-0.3768518518518518],[0.09259259259259259],[1],[0],[0],[0.4036361000034958],[1],['image_l'],,,,,,664542,001,2023-05-19_00h47.37.695,staircase,2023.1.1,60.00132002512176,
two_seed_gs,2.5,0,0,0,1,0,6,6,1,3,0,3,0,,,,,0.10671880003064871,1.7710000000000001,3.229,4770,9787,two_seed_gs,2.5,[-0.15555555555555556],[0.08703703703703704],[1],[0],[0],[0.5137190000386909],[1],['image_l'],,,,,,664542,001,2023-05-19_00h47.37.695,staircase,2023.1.1,60.00132002512176,
two_seed_gs,2.5,0,0,0,1,0,6,6,1,4,0,4,0,,,,,0.1068411999149248,1.844,3.156,10070,3283,two_seed_gs,2.5,[-0.17962962962962964],[0.07407407407407407],[1],[0],[0],[0.4502638999838382],[1],['image_l'],,,,,,664542,001,2023-05-19_00h47.37.695,staircase,2023.1.1,60.00132002512176,
two_seed_gs,2.5,0,0,0,1,0,6,6,1,5,0,5,0,,,,,0.10806520003825426,3.0900000000000003,1.9100000000000001,11253,6022,two_seed_gs,2.5,[0.3],[0.012037037037037037],[1],[0],[0],[0.5494249999755993],[1],['image_r'],,,,,,664542,001,2023-05-19_00h47.37.695,staircase,2023.1.1,60.00132002512176,
two_seed_gs,2.5,0,0,0,1,0,6,6,1,6,0,6,0,,,,,0.10484370007179677,3.031,1.969,3342,6945,two_seed_gs,2.5,[0.25092592592592594],[0.023148148148148147],[1],[0],[0],[0.6214749999344349],[1],['image_r'],,,,,,664542,001,2023-05-19_00h47.37.695,staircase,2023.1.1,60.00132002512176,
two_seed_gs,2.5,0,0,0,1,0,6,6,1,7,0,7,0,,,,,0.10473519994411618,2.0220000000000002,2.978,9201,3862,two_seed_gs,2.5,[-0.26944444444444443],[0.03611111111111111],[1],[0],[0],[0.46935849997680634],[1],['image_l'],,,,,,664542,001,2023-05-19_00h47.37.695,staircase,2023.1.1,60.00132002512176,
two_seed_gs,2.5,0,0,0,1,0,6,6,1,8,0,8,0,,,,,0.10566270002163947,2.93,2.0700000000000003,2096,789,two_seed_gs,2.5,[0.37592592592592594],[0.025925925925925925],[1],[0],[0],[0.8842659000074491],[1],['image_r'],,,,,,664542,001,2023-05-19_00h47.37.695,staircase,2023.1.1,60.00132002512176,
two_seed_gs,2.5,0,0,0,1,0,6,6,1,9,0,9,0,,,,,0.10327379999216646,2.887,2.1130000000000004,8586,9935,two_seed_gs,2.5,[0.2518518518518518],[0.05],[1],[0],[0],[1.004313200013712],[1],['image_r'],,,,,,664542,001,2023-05-19_00h47.37.695,staircase,2023.1.1,60.00132002512176,
two_seed_gs,2.5,0,0,0,1,0,6,6,1,10,0,10,0,,,,,0.10402530001010746,2.1520000000000006,2.848,5375,1212,two_seed_gs,2.5,[-0.3731481481481482],[0.05277777777777778],[1],[0],[0],[0.8377016000449657],[1],['image_l'],,,,,,664542,001,2023-05-19_00h47.37.695,staircase,2023.1.1,60.00132002512176,
two_seed_gs,2.5,0,0,0,1,0,6,6,1,11,0,11,0,,,,,0.10634779999963939,2.8129999999999997,2.1870000000000007,7001,8804,two_seed_gs,2.5,[0.2935185185185185],[0.062037037037037036],[1],[0],[0],[2.513364400016144],[1],['image_r'],,,,,,664542,001,2023-05-19_00h47.37.695,staircase,2023.1.1,60.00132002512176,
two_seed_gs,2.5,0,0,0,1,0,6,6,1,12,0,12,0,,,,,0.10172180004883558,2.218000000000001,2.7819999999999996,2130,2527,two_seed_gs,2.5,[-0.1925925925925926],[0.06944444444444445],[1],[0],[0],[0.4557449999265373],[1],['image_l'],,,,,,664542,001,2023-05-19_00h47.37.695,staircase,2023.1.1,60.00132002512176,
two_seed_gs,2.5,0,0,0,1,0,6,6,1,13,0,13,0,,,,,0.10469900001771748,2.7539999999999996,2.246000000000001,3104,9813,two_seed_gs,2.5,[0.2759259259259259],[0.05740740740740741],[1],[0],[0],[0.8859292999841273],[1],['image_r'],,,,,,664542,001,2023-05-19_00h47.37.695,staircase,2023.1.1,60.00132002512176,
two_seed_gs,2.5,0,0,0,1,0,6,6,1,14,0,14,0,,,,,0.10420369997154921,2.271000000000001,2.7289999999999996,3596,7035,two_seed_gs,2.5,[-0.2657407407407407],[0.06388888888888888],[1],[0],[0],[0.7703844000352547],[1],['image_l'],,,,,,664542,001,2023-05-19_00h47.37.695,staircase,2023.1.1,60.00132002512176,
two_seed_gs,2.5,0,0,0,1,0,6,6,1,15,0,15,0,,,,,0.10309280001092702,2.294000000000001,2.7059999999999995,5373,10435,two_seed_gs,2.5,[-0.22962962962962963],[0.06296296296296296],[1],[0],[0],[2.8381778000621125],[1],['image_l'],,,,,,664542,001,2023-05-19_00h47.37.695,staircase,2023.1.1,60.00132002512176,
two_seed_gs,2.5,0,0,0,1,0,6,6,1,16,0,16,0,,,,,0.10624390002340078,2.315000000000001,2.6849999999999996,3175,1764,two_seed_gs,2.5,[-0.22962962962962963],[0.06296296296296296],[1],[0],[0],[5.651410999940708],[1],['image_l'],,,,,,664542,001,2023-05-19_00h47.37.695,staircase,2023.1.1,60.00132002512176,
two_seed_gs,2.5,0,0,0,1,0,6,6,1,17,0,17,0,,,,,0.10299879999365658,2.667,2.3330000000000006,3576,6480,two_seed_gs,2.5,[0.2916666666666667],[0.08055555555555556],[1],[0],[0],[0.9706101999618113],[1],['image_r'],,,,,,664542,001,2023-05-19_00h47.37.695,staircase,2023.1.1,60.00132002512176,
two_seed_gs,2.5,0,0,0,1,0,6,6,1,18,0,18,0,,,,,0.10469960002228618,2.3500000000000005,2.65,401,4549,two_seed_gs,2.5,[-0.25925925925925924],[0.05555555555555555],[1],[0],[0],[1.170055800001137],[1],['image_l'],,,,,,664542,001,2023-05-19_00h47.37.695,staircase,2023.1.1,60.00132002512176,
two_seed_gs,2.5,0,0,0,1,0,6,6,1,19,0,19,0,,,,,0.10480490000918508,2.635,2.3650000000000007,5735,511,two_seed_gs,2.5,[0.23981481481481481],[0.08796296296296297],[1],[0],[0],[1.3028625999577343],[1],['image_r'],,,,,,664542,001,2023-05-19_00h47.37.695,staircase,2023.1.1,60.00132002512176,
two_seed_gs,2.5,0,0,0,1,0,6,6,1,20,0,20,0,,,,,0.10529279999900609,2.622,2.3780000000000006,175,1279,two_seed_gs,2.5,[0.25277777777777777],[0.04814814814814815],[1],[0],[0],[3.7023770000087097],[1],['image_r'],,,,,,664542,001,2023-05-19_00h47.37.695,staircase,2023.1.1,60.00132002512176,
two_seed_gs,2.5,0,0,0,1,0,6,6,1,21,0,21,0,,,,,0.10401740006636828,2.61,2.3900000000000006,4611,3035,two_seed_gs,2.5,[0.37222222222222223],[-0.022222222222222223],[1],[0],[0],[1.3868423999520019],[1],['image_r'],,,,,,664542,001,2023-05-19_00h47.37.695,staircase,2023.1.1,60.00132002512176,
two_seed_gs,2.5,0,0,0,1,0,6,6,1,22,0,22,0,,,,,0.10517739993520081,2.5989999999999998,2.4010000000000007,6917,11891,two_seed_gs,2.5,[0.20925925925925926],[0.03981481481481482],[1],[0],[0],[2.0157234999351203],[1],['image_r'],,,,,,664542,001,2023-05-19_00h47.37.695,staircase,2023.1.1,60.00132002512176,
two_seed_gs,2.5,0,0,0,1,0,6,6,1,23,0,23,0,,,,,0.11289620003663003,2.589,2.4110000000000005,5335,4612,two_seed_gs,2.5,[0.2833333333333333],[0.027777777777777776],[1],[0],[0],[1.3253231999697164],[1],['image_r'],,,,,,664542,001,2023-05-19_00h47.37.695,staircase,2023.1.1,60.00132002512176,
two_seed_gs,2.5,0,0,0,1,0,6,6,1,24,0,24,0,,,,,0.11043739994056523,2.58,2.4200000000000004,9597,9906,two_seed_gs,2.5,[0.262037037037037],[0.05],[1],[0],[0],[1.4976873999694362],[1],['image_r'],,,,,,664542,001,2023-05-19_00h47.37.695,staircase,2023.1.1,60.00132002512176,
two_seed_gs,2.5,0,0,0,1,0,6,6,1,25,0,25,0,,,,,0.10920700000133365,2.4280000000000004,2.572,5732,6964,two_seed_gs,2.5,[-0.18703703703703703],[0.04351851851851852],[1],[0],[0],[0.9126965999603271],[1],['image_l'],,,,,,664542,001,2023-05-19_00h47.37.695,staircase,2023.1.1,60.00132002512176,
two_seed_gs,2.5,0,0,0,1,0,6,6,1,26,0,26,0,,,,,0.10616259998641908,2.565,2.4350000000000005,9286,2456,two_seed_gs,2.5,[-0.18611111111111112],[0.04351851851851852],[1],[0],[0],[1.2673753999406472],[0],['image_l'],,,,,,664542,001,2023-05-19_00h47.37.695,staircase,2023.1.1,60.00132002512176,
two_seed_gs,2.5,0,0,0,1,0,6,6,1,27,0,27,0,,,,,0.10569479991681874,2.4410000000000003,2.559,2723,9712,two_seed_gs,2.5,[0.16666666666666666],[0.03425925925925926],[1],[0],[0],[1.0521384999155998],[0],['image_r'],,,,,,664542,001,2023-05-19_00h47.37.695,staircase,2023.1.1,60.00132002512176,
two_seed_gs,2.5,0,0,0,1,0,6,6,1,28,0,28,0,,,,,0.10361950006335974,2.4350000000000005,2.565,7135,2082,two_seed_gs,2.5,[-0.2],[0.03796296296296296],[1],[0],[0],[0.9873429000144824],[1],['image_l'],,,,,,664542,001,2023-05-19_00h47.37.695,staircase,2023.1.1,60.00132002512176,
two_seed_gs,2.5,0,0,0,1,0,6,6,1,29,0,29,0,,,,,0.10292390000540763,2.4290000000000007,2.5709999999999997,12244,2746,two_seed_gs,2.5,[-0.24351851851851852],[0.04722222222222222],[1],[0],[0],[0.7227372000925243],[1],['image_l'],,,,,,664542,001,2023-05-19_00h47.37.695,staircase,2023.1.1,60.00132002512176,
two_seed_gs,5,0,0,0,1,0,7,7,6,0,0,0,0,,,,,0.11153039999771863,6,4,7118,11694,two_seed_gs,5,[0.2824074074074074],[0.03148148148148148],[1],[0],[0],[1.171299200039357],[1],['image_r'],344.1008805000456,344.1008805000456,space,1.3821595000335947,,664542,001,2023-05-19_00h47.37.695,staircase,2023.1.1,60.00132002512176,
two_seed_gs,5,0,0,0,1,0,7,7,6,1,0,1,0,,,,,0.10168740001972765,5.9,4.1,4730,6530,two_seed_gs,5,[0.32222222222222224],[0.026851851851851852],[1],[0],[0],[0.7543467000359669],[1],['image_r'],,,,,,664542,001,2023-05-19_00h47.37.695,staircase,2023.1.1,60.00132002512176,
two_seed_gs,5,0,0,0,1,0,7,7,6,2,0,2,0,,,,,0.10121440002694726,4.1899999999999995,5.8100000000000005,2401,1594,two_seed_gs,5,[-0.3351851851851852],[0.024074074074074074],[1],[0],[0],[0.4890729000326246],[1],['image_l'],,,,,,664542,001,2023-05-19_00h47.37.695,staircase,2023.1.1,60.00132002512176,
two_seed_gs,5,0,0,0,1,0,7,7,6,3,0,3,0,,,,,0.10503730003256351,4.271,5.729,3607,5979,two_seed_gs,5,[-0.2324074074074074],[0.06111111111111111],[1],[0],[0],[0.5539957000873983],[1],['image_l'],,,,,,664542,001,2023-05-19_00h47.37.695,staircase,2023.1.1,60.00132002512176,
two_seed_gs,5,0,0,0,1,0,7,7,6,4,0,4,0,,,,,0.10290499997790903,4.344,5.656,11362,6902,two_seed_gs,5,[-0.3194444444444444],[0.0712962962962963],[1],[0],[0],[0.670220399973914],[1],['image_l'],,,,,,664542,001,2023-05-19_00h47.37.695,staircase,2023.1.1,60.00132002512176,
two_seed_gs,5,0,0,0,1,0,7,7,6,5,0,5,0,,,,,0.10134069994091988,5.59,4.41,8787,8721,two_seed_gs,5,[0.30462962962962964],[0.014814814814814815],[1],[0],[0],[0.6228038999252021],[1],['image_r'],,,,,,664542,001,2023-05-19_00h47.37.695,staircase,2023.1.1,60.00132002512176,
two_seed_gs,5,0,0,0,1,0,7,7,6,6,0,6,0,,,,,0.10312640003394336,4.469,5.531,4617,4813,two_seed_gs,5,[-0.27037037037037037],[0.013888888888888888],[1],[0],[0],[0.8212837999453768],[1],['image_l'],,,,,,664542,001,2023-05-19_00h47.37.695,staircase,2023.1.1,60.00132002512176,
two_seed_gs,5,0,0,0,1,0,7,7,6,7,0,7,0,,,,,0.10225500003434718,4.522,5.478,10562,2231,two_seed_gs,5,[-0.24074074074074073],[0.032407407407407406],[1],[0],[0],[0.7220712999114767],[1],['image_l'],,,,,,664542,001,2023-05-19_00h47.37.695,staircase,2023.1.1,60.00132002512176,
two_seed_gs,5,0,0,0,1,0,7,7,6,8,0,8,0,,,,,0.10115040000528097,4.57,5.43,7584,3473,two_seed_gs,5,[-0.24166666666666667],[0.032407407407407406],[1],[0],[0],[0.7065961000043899],[1],['image_l'],,,,,,664542,001,2023-05-19_00h47.37.695,staircase,2023.1.1,60.00132002512176,
two_seed_gs,5,0,0,0,1,0,7,7,6,9,0,9,0,,,,,0.10109320003539324,5.387,4.613,612,6902,two_seed_gs,5,[0.26296296296296295],[-0.006481481481481481],[1],[0],[0],[0.7067871000617743],[1],['image_r'],,,,,,664542,001,2023-05-19_00h47.37.695,staircase,2023.1.1,60.00132002512176,
two_seed_gs,5,0,0,0,1,0,7,7,6,10,0,10,0,,,,,0.10114370007067919,5.348,4.652,438,10277,two_seed_gs,5,[0.3592592592592593],[-0.04259259259259259],[1],[0],[0],[1.0232390000019222],[1],['image_r'],,,,,,664542,001,2023-05-19_00h47.37.695,staircase,2023.1.1,60.00132002512176,
two_seed_gs,5,0,0,0,1,0,7,7,6,11,0,11,0,,,,,0.1013319999910891,4.687,5.313,7967,9822,two_seed_gs,5,[-0.29907407407407405],[0.012962962962962963],[1],[0],[0],[0.47280059999320656],[1],['image_l'],,,,,,664542,001,2023-05-19_00h47.37.695,staircase,2023.1.1,60.00132002512176,
two_seed_gs,5,0,0,0,1,0,7,7,6,12,0,12,0,,,,,0.10209759999997914,5.282,4.718,346,2343,two_seed_gs,5,[0.26296296296296295],[-0.024074074074074074],[1],[0],[0],[0.8390815999591723],[1],['image_r'],,,,,,664542,001,2023-05-19_00h47.37.695,staircase,2023.1.1,60.00132002512176,
two_seed_gs,5,0,0,0,1,0,7,7,6,13,0,13,0,,,,,0.10203599999658763,4.7459999999999996,5.2540000000000004,5853,5627,two_seed_gs,5,[-0.18703703703703703],[0.023148148148148147],[1],[0],[0],[1.038570599979721],[1],['image_l'],,,,,,664542,001,2023-05-19_00h47.37.695,staircase,2023.1.1,60.00132002512176,
two_seed_gs,5,0,0,0,1,0,7,7,6,14,0,14,0,,,,,0.10099750000517815,5.229,4.771,401,7755,two_seed_gs,5,[0.30833333333333335],[-0.016666666666666666],[1],[0],[0],[0.5731347999535501],[1],['image_r'],,,,,,664542,001,2023-05-19_00h47.37.695,staircase,2023.1.1,60.00132002512176,
two_seed_gs,5,0,0,0,1,0,7,7,6,15,0,15,0,,,,,0.10245199990458786,5.206,4.794,10348,1816,two_seed_gs,5,[0.2388888888888889],[-0.009259259259259259],[1],[0],[0],[0.921751799993217],[1],['image_r'],,,,,,664542,001,2023-05-19_00h47.37.695,staircase,2023.1.1,60.00132002512176,
two_seed_gs,5,0,0,0,1,0,7,7,6,16,0,16,0,,,,,0.1021377999568358,5.1850000000000005,4.8149999999999995,7842,6044,two_seed_gs,5,[-0.2537037037037037],[-0.008333333333333333],[1],[0],[0],[0.5357593999942765],[0],['image_l'],,,,,,664542,001,2023-05-19_00h47.37.695,staircase,2023.1.1,60.00132002512176,
two_seed_gs,5,0,0,0,1,0,7,7,6,17,0,17,0,,,,,0.09952529997099191,5.166,4.834,9530,1706,two_seed_gs,5,[0.31574074074074077],[-0.019444444444444445],[1],[0],[0],[0.990990599966608],[1],['image_r'],,,,,,664542,001,2023-05-19_00h47.37.695,staircase,2023.1.1,60.00132002512176,
two_seed_gs,5,0,0,0,1,0,7,7,6,18,0,18,0,,,,,0.09906299994327128,5.183000000000001,4.816999999999999,692,1135,two_seed_gs,5,[0.21388888888888888],[0.002777777777777778],[1],[0],[0],[0.9254059999948367],[1],['image_r'],,,,,,664542,001,2023-05-19_00h47.37.695,staircase,2023.1.1,60.00132002512176,
two_seed_gs,5,0,0,0,1,0,7,7,6,19,0,19,0,,,,,0.10288999998010695,4.7989999999999995,5.2010000000000005,10120,6015,two_seed_gs,5,[-0.32037037037037036],[-0.003703703703703704],[1],[0],[0],[0.47120380005799234],[1],['image_l'],,,,,,664542,001,2023-05-19_00h47.37.695,staircase,2023.1.1,60.00132002512176,
two_seed_gs,5,0,0,0,1,0,7,7,6,20,0,20,0,,,,,0.10282519995234907,5.221,4.779,614,652,two_seed_gs,5,[0.3296296296296296],[0.005555555555555556],[1],[0],[0],[0.855504900100641],[1],['image_r'],,,,,,664542,001,2023-05-19_00h47.37.695,staircase,2023.1.1,60.00132002512176,
two_seed_gs,5,0,0,0,1,0,7,7,6,21,0,21,0,,,,,0.11063799995463341,4.801,5.199,9944,1796,two_seed_gs,5,[-0.28055555555555556],[-0.005555555555555556],[1],[0],[0],[0.7045108999591321],[1],['image_l'],,,,,,664542,001,2023-05-19_00h47.37.695,staircase,2023.1.1,60.00132002512176,
two_seed_gs,5,0,0,0,1,0,7,7,6,22,0,22,0,,,,,0.10838340001646429,5.179,4.821,5253,6972,two_seed_gs,5,[0.29814814814814816],[0.026851851851851852],[1],[0],[0],[0.6163879999658093],[1],['image_r'],,,,,,664542,001,2023-05-19_00h47.37.695,staircase,2023.1.1,60.00132002512176,
two_seed_gs,5,0,0,0,1,0,7,7,6,23,0,23,0,,,,,0.10243480000644922,5.1610000000000005,4.8389999999999995,11596,8391,two_seed_gs,5,[0.3194444444444444],[0.03888888888888889],[1],[0],[0],[1.2573084000032395],[1],['image_r'],,,,,,664542,001,2023-05-19_00h47.37.695,staircase,2023.1.1,60.00132002512176,
two_seed_gs,5,0,0,0,1,0,7,7,6,24,0,24,0,,,,,0.10273100004997104,4.8549999999999995,5.1450000000000005,8345,10351,two_seed_gs,5,[-0.2759259259259259],[0.025],[1],[0],[0],[0.5695202000206336],[1],['image_l'],,,,,,664542,001,2023-05-19_00h47.37.695,staircase,2023.1.1,60.00132002512176,
two_seed_gs,5,0,0,0,1,0,7,7,6,25,0,25,0,,,,,0.10219190001953393,4.869999999999999,5.130000000000001,6945,9253,two_seed_gs,5,[-0.27685185185185185],[0.07037037037037037],[1],[0],[0],[1.5057698000455275],[1],['image_l'],,,,,,664542,001,2023-05-19_00h47.37.695,staircase,2023.1.1,60.00132002512176,
two_seed_gs,5,0,0,0,1,0,7,7,6,26,0,26,0,,,,,0.10218030004762113,4.882999999999999,5.117000000000001,11496,11221,two_seed_gs,5,[-0.35648148148148145],[0.018518518518518517],[1],[0],[0],[1.1880181999877095],[1],['image_l'],,,,,,664542,001,2023-05-19_00h47.37.695,staircase,2023.1.1,60.00132002512176,
two_seed_gs,5,0,0,0,1,0,7,7,6,27,0,27,0,,,,,0.1105548000195995,4.894999999999999,5.105000000000001,11388,2381,two_seed_gs,5,[-0.35555555555555557],[0.008333333333333333],[1],[0],[0],[1.6474564999807626],[1],['image_l'],,,,,,664542,001,2023-05-19_00h47.37.695,staircase,2023.1.1,60.00132002512176,
two_seed_gs,5,0,0,0,1,0,7,7,6,28,0,28,0,,,,,0.10202039999421686,5.094000000000001,4.905999999999999,9007,10322,two_seed_gs,5,[0.33611111111111114],[0.020370370370370372],[1],[0],[0],[0.7717792000621557],[1],['image_r'],,,,,,664542,001,2023-05-19_00h47.37.695,staircase,2023.1.1,60.00132002512176,
two_seed_gs,5,0,0,0,1,0,7,7,6,29,0,29,0,,,,,0.10157669999171048,5.085000000000001,4.914999999999999,5027,7063,two_seed_gs,5,[0.21388888888888888],[-0.04722222222222222],[1],[0],[0],[1.6227201001020148],[1],['image_r'],,,,,,664542,001,2023-05-19_00h47.37.695,staircase,2023.1.1,60.00132002512176,
two_seed_gs,5,0,0,0,1,0,7,7,6,30,0,30,0,,,,,0.10257350001484156,5.0760000000000005,4.9239999999999995,5004,662,two_seed_gs,5,[0.24444444444444444],[-0.008333333333333333],[1],[0],[0],[0.7384979999624193],[1],['image_r'],,,,,,664542,001,2023-05-19_00h47.37.695,staircase,2023.1.1,60.00132002512176,
two_seed_gs,5,0,0,0,1,0,7,7,6,31,0,31,0,,,,,0.10412510007154197,5.0680000000000005,4.9319999999999995,1136,8081,two_seed_gs,5,[0.30833333333333335],[-0.017592592592592594],[1],[0],[0],[0.8701922999462113],[1],['image_r'],,,,,,664542,001,2023-05-19_00h47.37.695,staircase,2023.1.1,60.00132002512176,
two_seed_gs,5,0,0,0,1,0,7,7,6,32,0,32,0,,,,,0.10536600009072572,4.938999999999999,5.061000000000001,8992,6852,two_seed_gs,5,[0.2712962962962963],[0.002777777777777778],[1],[0],[0],[1.5020053000189364],[0],['image_r'],,,,,,664542,001,2023-05-19_00h47.37.695,staircase,2023.1.1,60.00132002512176,
two_seed_gs,5,0,0,0,1,0,7,7,6,33,0,33,0,,,,,0.10211390000768006,4.944999999999999,5.055000000000001,12022,5411,two_seed_gs,5,[-0.2601851851851852],[-0.022222222222222223],[1],[0],[0],[0.8733161999844015],[1],['image_l'],,,,,,664542,001,2023-05-19_00h47.37.695,staircase,2023.1.1,60.00132002512176,
two_seed_gs,5,0,0,0,1,0,7,7,6,34,0,34,0,,,,,0.10259829997085035,4.938999999999999,5.061000000000001,8080,5077,two_seed_gs,5,[-0.24166666666666667],[-0.01574074074074074],[1],[0],[0],[1.0039925000164658],[1],['image_l'],,,,,,664542,001,2023-05-19_00h47.37.695,staircase,2023.1.1,60.00132002512176,
two_seed_gs,6,0,0,0,1,0,8,8,8,0,0,0,0,,,,,0.10878019989468157,7,5,8013,3305,two_seed_gs,6,[0.27037037037037037],[0.024074074074074074],[1],[0],[0],[0.9751156999263912],[1],['image_r'],381.8173045000294,381.8173045000294,space,1.3944499000208452,,664542,001,2023-05-19_00h47.37.695,staircase,2023.1.1,60.00132002512176,
two_seed_gs,6,0,0,0,1,0,8,8,8,1,0,1,0,,,,,0.10084520000964403,5.1,6.9,8432,8628,two_seed_gs,6,[-0.33611111111111114],[0.05185185185185185],[1],[0],[0],[0.721215600031428],[1],['image_l'],,,,,,664542,001,2023-05-19_00h47.37.695,staircase,2023.1.1,60.00132002512176,
two_seed_gs,6,0,0,0,1,0,8,8,8,2,0,2,0,,,,,0.10109709994867444,6.8100000000000005,5.1899999999999995,737,9055,two_seed_gs,6,[0.3351851851851852],[-0.022222222222222223],[1],[0],[0],[0.6554780000587925],[1],['image_r'],,,,,,664542,001,2023-05-19_00h47.37.695,staircase,2023.1.1,60.00132002512176,
two_seed_gs,6,0,0,0,1,0,8,8,8,3,0,3,0,,,,,0.10128379997331649,5.271,6.729,557,4202,two_seed_gs,6,[-0.3490740740740741],[-0.007407407407407408],[1],[0],[0],[0.6559826000593603],[1],['image_l'],,,,,,664542,001,2023-05-19_00h47.37.695,staircase,2023.1.1,60.00132002512176,
two_seed_gs,6,0,0,0,1,0,8,8,8,4,0,4,0,,,,,0.10129729995969683,6.656,5.344,8586,11544,two_seed_gs,6,[0.3537037037037037],[-0.03518518518518519],[1],[0],[0],[0.5397278000600636],[1],['image_r'],,,,,,664542,001,2023-05-19_00h47.37.695,staircase,2023.1.1,60.00132002512176,
two_seed_gs,6,0,0,0,1,0,8,8,8,5,0,5,0,,,,,0.1018472999567166,6.59,5.41,8304,9155,two_seed_gs,6,[0.2518518518518518],[-0.011111111111111112],[1],[0],[0],[1.6062521999701858],[1],['image_r'],,,,,,664542,001,2023-05-19_00h47.37.695,staircase,2023.1.1,60.00132002512176,
two_seed_gs,6,0,0,0,1,0,8,8,8,6,0,6,0,,,,,0.10091380006633699,5.469,6.531,2885,4259,two_seed_gs,6,[-0.2564814814814815],[-0.022222222222222223],[1],[0],[0],[0.6390814000042155],[1],['image_l'],,,,,,664542,001,2023-05-19_00h47.37.695,staircase,2023.1.1,60.00132002512176,
two_seed_gs,6,0,0,0,1,0,8,8,8,7,0,7,0,,,,,0.10054919996764511,5.522,6.478,10167,2930,two_seed_gs,6,[-0.2564814814814815],[-0.022222222222222223],[1],[0],[0],[0.6392946999985725],[1],['image_l'],,,,,,664542,001,2023-05-19_00h47.37.695,staircase,2023.1.1,60.00132002512176,
two_seed_gs,6,0,0,0,1,0,8,8,8,8,0,8,0,,,,,0.10211109998635948,5.57,6.43,8834,11099,two_seed_gs,6,[-0.2564814814814815],[-0.022222222222222223],[1],[0],[0],[2.6231894999509677],[1],['image_l'],,,,,,664542,001,2023-05-19_00h47.37.695,staircase,2023.1.1,60.00132002512176,
two_seed_gs,6,0,0,0,1,0,8,8,8,9,0,9,0,,,,,0.10007459996268153,6.387,5.613,11558,4690,two_seed_gs,6,[0.28888888888888886],[-0.03888888888888889],[1],[0],[0],[0.7916175000136718],[1],['image_r'],,,,,,664542,001,2023-05-19_00h47.37.695,staircase,2023.1.1,60.00132002512176,
two_seed_gs,6,0,0,0,1,0,8,8,8,10,0,10,0,,,,,0.09975140006281435,5.652,6.348,10524,4989,two_seed_gs,6,[-0.3425925925925926],[0.0],[1],[0],[0],[0.7072806999785826],[1],['image_l'],,,,,,664542,001,2023-05-19_00h47.37.695,staircase,2023.1.1,60.00132002512176,
two_seed_gs,6,0,0,0,1,0,8,8,8,11,0,11,0,,,,,0.10001240007113665,5.687,6.313,8485,3919,two_seed_gs,6,[0.18888888888888888],[0.011111111111111112],[1],[0],[0],[2.14128730003722],[0],['image_r'],,,,,,664542,001,2023-05-19_00h47.37.695,staircase,2023.1.1,60.00132002512176,
two_seed_gs,6,0,0,0,1,0,8,8,8,12,0,12,0,,,,,0.10017079999670386,5.718,6.282,12136,2456,two_seed_gs,6,[-0.23148148148148148],[0.001851851851851852],[1],[0],[0],[1.6241296000080183],[1],['image_l'],,,,,,664542,001,2023-05-19_00h47.37.695,staircase,2023.1.1,60.00132002512176,
two_seed_gs,6,0,0,0,1,0,8,8,8,13,0,13,0,,,,,0.10106620006263256,6.31,5.69,12101,4453,two_seed_gs,6,[0.21851851851851853],[0.032407407407407406],[1],[0],[0],[1.4729485999559984],[1],['image_r'],,,,,,664542,001,2023-05-19_00h47.37.695,staircase,2023.1.1,60.00132002512176,
two_seed_gs,6,0,0,0,1,0,8,8,8,14,0,14,0,,,,,0.1015553999459371,5.659000000000001,6.340999999999999,4640,3300,two_seed_gs,6,[-0.33796296296296297],[0.025],[1],[0],[0],[0.7897391999140382],[1],['image_l'],,,,,,664542,001,2023-05-19_00h47.37.695,staircase,2023.1.1,60.00132002512176,
two_seed_gs,6,0,0,0,1,0,8,8,8,15,0,15,0,,,,,0.10695220006164163,5.625000000000001,6.374999999999999,5059,1497,two_seed_gs,6,[-0.38796296296296295],[0.025925925925925925],[1],[0],[0],[1.1986289999913424],[1],['image_l'],,,,,,664542,001,2023-05-19_00h47.37.695,staircase,2023.1.1,60.00132002512176,
two_seed_gs,6,0,0,0,1,0,8,8,8,16,0,16,0,,,,,0.10098910005763173,5.662000000000001,6.337999999999999,7218,8215,two_seed_gs,6,[0.3314814814814815],[-0.016666666666666666],[1],[0],[0],[0.6733046999434009],[0],['image_r'],,,,,,664542,001,2023-05-19_00h47.37.695,staircase,2023.1.1,60.00132002512176,
two_seed_gs,6,0,0,0,1,0,8,8,8,17,0,17,0,,,,,0.10566679993644357,6.303999999999999,5.696000000000001,2624,1148,two_seed_gs,6,[0.22407407407407406],[0.0787037037037037],[1],[0],[0],[1.4681079000001773],[1],['image_r'],,,,,,664542,001,2023-05-19_00h47.37.695,staircase,2023.1.1,60.00132002512176,
two_seed_gs,6,0,0,0,1,0,8,8,8,18,0,18,0,,,,,0.09939770004712045,6.334,5.666,2839,5636,two_seed_gs,6,[0.31851851851851853],[0.003703703703703704],[1],[0],[0],[1.09130740002729],[1],['image_r'],,,,,,664542,001,2023-05-19_00h47.37.695,staircase,2023.1.1,60.00132002512176,
two_seed_gs,6,0,0,0,1,0,8,8,8,19,0,19,0,,,,,0.1014803999569267,6.367,5.633,8037,7852,two_seed_gs,6,[0.33425925925925926],[0.024074074074074074],[1],[0],[0],[1.1394548999378458],[1],['image_r'],,,,,,664542,001,2023-05-19_00h47.37.695,staircase,2023.1.1,60.00132002512176,
two_seed_gs,6,0,0,0,1,0,8,8,8,20,0,20,0,,,,,0.10148599999956787,5.596,6.404,4124,1843,two_seed_gs,6,[-0.387037037037037],[0.041666666666666664],[1],[0],[0],[0.5395381000125781],[1],['image_l'],,,,,,664542,001,2023-05-19_00h47.37.695,staircase,2023.1.1,60.00132002512176,
two_seed_gs,6,0,0,0,1,0,8,8,8,21,0,21,0,,,,,0.10129320004489273,5.636,6.364,4389,303,two_seed_gs,6,[-0.25925925925925924],[0.05925925925925926],[1],[0],[0],[2.305845999973826],[1],['image_l'],,,,,,664542,001,2023-05-19_00h47.37.695,staircase,2023.1.1,60.00132002512176,
two_seed_gs,6,0,0,0,1,0,8,8,8,22,0,22,0,,,,,0.1032435999950394,5.672,6.328,7602,2189,two_seed_gs,6,[-0.23333333333333334],[0.05462962962962963],[1],[0],[0],[0.6190721000311896],[1],['image_l'],,,,,,664542,001,2023-05-19_00h47.37.695,staircase,2023.1.1,60.00132002512176,
two_seed_gs,6,0,0,0,1,0,8,8,8,23,0,23,0,,,,,0.10982899996452034,5.705,6.295,3281,2552,two_seed_gs,6,[-0.3416666666666667],[0.013888888888888888],[1],[0],[0],[46.81049499998335],[1],['image_l'],,,,,,664542,001,2023-05-19_00h47.37.695,staircase,2023.1.1,60.00132002512176,
two_seed_gs,6,0,0,0,1,0,8,8,8,24,0,24,0,,,,,0.1008305000141263,6.266,5.734,9423,12114,two_seed_gs,6,[0.4962962962962963],[0.027777777777777776],[1],[0],[0],[0.9903960999799892],[1],['image_r'],,,,,,664542,001,2023-05-19_00h47.37.695,staircase,2023.1.1,60.00132002512176,
two_seed_gs,6,0,0,0,1,0,8,8,8,25,0,25,0,,,,,0.10212600009981543,6.239,5.761,2217,4588,two_seed_gs,6,[0.4324074074074074],[0.05277777777777778],[1],[0],[0],[0.7212888000067323],[1],['image_r'],,,,,,664542,001,2023-05-19_00h47.37.695,staircase,2023.1.1,60.00132002512176,
two_seed_gs,6,0,0,0,1,0,8,8,8,26,0,26,0,,,,,0.10097410005982965,6.215,5.785,11892,399,two_seed_gs,6,[0.49166666666666664],[-0.003703703703703704],[1],[0],[0],[0.7231711000204086],[1],['image_r'],,,,,,664542,001,2023-05-19_00h47.37.695,staircase,2023.1.1,60.00132002512176,
two_seed_gs,6,0,0,0,1,0,8,8,8,27,0,27,0,,,,,0.0990748000331223,5.806,6.194,8005,4956,two_seed_gs,6,[-0.3314814814814815],[0.019444444444444445],[1],[0],[0],[0.6417786000529304],[1],['image_l'],,,,,,664542,001,2023-05-19_00h47.37.695,staircase,2023.1.1,60.00132002512176,
two_seed_bw,4.5,0,1,1,0,0,0,0,5,0,0,0,0,,,,,0.10030030005145818,5.5,3.5,6773,1636,two_seed_bw,4.5,[0.2796296296296296],[0.022222222222222223],[1],[0],[0],[5.877490499988198],[1],['image_r'],462.6001747000264,462.6001747000264,space,1.2110179000301287,,664542,001,2023-05-19_00h47.37.695,staircase,2023.1.1,60.00132002512176,
two_seed_bw,4.5,0,1,1,0,0,0,0,5,1,0,1,0,,,,,0.09280990005936474,5.4,3.6,6417,8806,two_seed_bw,4.5,[0.2796296296296296],[0.022222222222222223],[1],[0],[0],[1.1619952999753878],[1],['image_r'],,,,,,664542,001,2023-05-19_00h47.37.695,staircase,2023.1.1,60.00132002512176,
two_seed_bw,4.5,0,1,1,0,0,0,0,5,2,0,2,0,,,,,0.0913981000194326,3.69,5.3100000000000005,12243,3827,two_seed_bw,4.5,[-0.21944444444444444],[0.040740740740740744],[1],[0],[0],[0.6342381000285968],[1],['image_l'],,,,,,664542,001,2023-05-19_00h47.37.695,staircase,2023.1.1,60.00132002512176,
two_seed_bw,4.5,0,1,1,0,0,0,0,5,3,0,3,0,,,,,0.09298139996826649,3.771,5.229,3636,9637,two_seed_bw,4.5,[-0.21944444444444444],[0.040740740740740744],[1],[0],[0],[0.6464590000687167],[1],['image_l'],,,,,,664542,001,2023-05-19_00h47.37.695,staircase,2023.1.1,60.00132002512176,
two_seed_bw,4.5,0,1,1,0,0,0,0,5,4,0,4,0,,,,,0.0969412000849843,3.844,5.156,5947,12170,two_seed_bw,4.5,[-0.21944444444444444],[0.040740740740740744],[1],[0],[0],[0.5940826999722049],[1],['image_l'],,,,,,664542,001,2023-05-19_00h47.37.695,staircase,2023.1.1,60.00132002512176,
two_seed_bw,4.5,0,1,1,0,0,0,0,5,5,0,5,0,,,,,0.09512780001387,3.9099999999999997,5.09,2529,803,two_seed_bw,4.5,[-0.21944444444444444],[0.040740740740740744],[1],[0],[0],[0.578899799962528],[1],['image_l'],,,,,,664542,001,2023-05-19_00h47.37.695,staircase,2023.1.1,60.00132002512176,
two_seed_bw,4.5,0,1,1,0,0,0,0,5,6,0,6,0,,,,,0.09185049997176975,5.031,3.969,7720,2720,two_seed_bw,4.5,[0.31296296296296294],[0.03888888888888889],[1],[0],[0],[0.9493344000075012],[1],['image_r'],,,,,,664542,001,2023-05-19_00h47.37.695,staircase,2023.1.1,60.00132002512176,
two_seed_bw,4.5,0,1,1,0,0,0,0,5,7,0,7,0,,,,,0.09259589994326234,4.978,4.022,5480,7583,two_seed_bw,4.5,[0.2833333333333333],[0.025925925925925925],[1],[0],[0],[0.5819599000969902],[1],['image_r'],,,,,,664542,001,2023-05-19_00h47.37.695,staircase,2023.1.1,60.00132002512176,
two_seed_bw,4.5,0,1,1,0,0,0,0,5,8,0,8,0,,,,,0.09402980003505945,4.07,4.93,3551,11335,two_seed_bw,4.5,[-0.1675925925925926],[0.026851851851851852],[1],[0],[0],[0.659082300029695],[1],['image_l'],,,,,,664542,001,2023-05-19_00h47.37.695,staircase,2023.1.1,60.00132002512176,
two_seed_bw,4.5,0,1,1,0,0,0,0,5,9,0,9,0,,,,,0.09483069996349514,4.113,4.887,2983,8298,two_seed_bw,4.5,[-0.32314814814814813],[0.049074074074074076],[1],[0],[0],[0.5792735000140965],[1],['image_l'],,,,,,664542,001,2023-05-19_00h47.37.695,staircase,2023.1.1,60.00132002512176,
two_seed_bw,4.5,0,1,1,0,0,0,0,5,10,0,10,0,,,,,0.09341169998515397,4.848,4.152,8148,8009,two_seed_bw,4.5,[0.3611111111111111],[0.010185185185185186],[1],[0],[0],[1.6319387999828905],[1],['image_r'],,,,,,664542,001,2023-05-19_00h47.37.695,staircase,2023.1.1,60.00132002512176,
two_seed_bw,4.5,0,1,1,0,0,0,0,5,11,0,11,0,,,,,0.09273890010081232,4.813,4.187,3334,5543,two_seed_bw,4.5,[0.3611111111111111],[0.010185185185185186],[1],[0],[0],[0.597431099973619],[1],['image_r'],,,,,,664542,001,2023-05-19_00h47.37.695,staircase,2023.1.1,60.00132002512176,
two_seed_bw,4.5,0,1,1,0,0,0,0,5,12,0,12,0,,,,,0.0968725000275299,4.218,4.782,5375,661,two_seed_bw,4.5,[-0.30092592592592593],[0.03148148148148148],[1],[0],[0],[0.5613592999288812],[1],['image_l'],,,,,,664542,001,2023-05-19_00h47.37.695,staircase,2023.1.1,60.00132002512176,
two_seed_bw,4.5,0,1,1,0,0,0,0,5,13,0,13,0,,,,,0.0934267999837175,4.2459999999999996,4.7540000000000004,8001,2632,two_seed_bw,4.5,[-0.3],[0.03148148148148148],[1],[0],[0],[0.8974274999927729],[1],['image_l'],,,,,,664542,001,2023-05-19_00h47.37.695,staircase,2023.1.1,60.00132002512176,
two_seed_bw,4.5,0,1,1,0,0,0,0,5,14,0,14,0,,,,,0.09262989996932447,4.271,4.729,3198,10278,two_seed_bw,4.5,[-0.3],[0.03148148148148148],[1],[0],[0],[2.6479513000231236],[1],['image_l'],,,,,,664542,001,2023-05-19_00h47.37.695,staircase,2023.1.1,60.00132002512176,
two_seed_bw,4.5,0,1,1,0,0,0,0,5,15,0,15,0,,,,,0.0979508999735117,4.294,4.706,6444,4842,two_seed_bw,4.5,[-0.3],[0.03148148148148148],[1],[0],[0],[0.9930251999758184],[1],['image_l'],,,,,,664542,001,2023-05-19_00h47.37.695,staircase,2023.1.1,60.00132002512176,
two_seed_bw,4.5,0,1,1,0,0,0,0,5,16,0,16,0,,,,,0.09770460007712245,4.6850000000000005,4.3149999999999995,5528,9492,two_seed_bw,4.5,[0.3296296296296296],[0.037037037037037035],[1],[0],[0],[1.8100004999432713],[1],['image_r'],,,,,,664542,001,2023-05-19_00h47.37.695,staircase,2023.1.1,60.00132002512176,
two_seed_bw,4.5,0,1,1,0,0,0,0,5,17,0,17,0,,,,,0.09811999998055398,4.666,4.334,3554,11235,two_seed_bw,4.5,[0.3675925925925926],[0.06388888888888888],[1],[0],[0],[1.292130499961786],[1],['image_r'],,,,,,664542,001,2023-05-19_00h47.37.695,staircase,2023.1.1,60.00132002512176,
two_seed_bw,4.5,0,1,1,0,0,0,0,5,18,0,18,0,,,,,0.09770319995004684,4.351,4.649,9842,6564,two_seed_bw,4.5,[-0.5175925925925926],[0.05925925925925926],[1],[0],[0],[5.676937000011094],[1],['image_l'],,,,,,664542,001,2023-05-19_00h47.37.695,staircase,2023.1.1,60.00132002512176,
two_seed_bw,4.5,0,1,1,0,0,0,0,5,19,0,19,0,,,,,0.09562829998321831,4.366,4.634,1781,11058,two_seed_bw,4.5,[-0.2537037037037037],[0.032407407407407406],[1],[0],[0],[1.312144200084731],[1],['image_l'],,,,,,664542,001,2023-05-19_00h47.37.695,staircase,2023.1.1,60.00132002512176,
two_seed_bw,4.5,0,1,1,0,0,0,0,5,20,0,20,0,,,,,0.09382239996921271,4.379,4.621,10589,7834,two_seed_bw,4.5,[-0.1638888888888889],[0.009259259259259259],[1],[0],[0],[2.197275499929674],[1],['image_l'],,,,,,664542,001,2023-05-19_00h47.37.695,staircase,2023.1.1,60.00132002512176,
two_seed_bw,4.5,0,1,1,0,0,0,0,5,21,0,21,0,,,,,0.09113200008869171,4.609000000000001,4.390999999999999,12168,3252,two_seed_bw,4.5,[0.35555555555555557],[0.12129629629629629],[1],[0],[0],[0.8328088000416756],[1],['image_r'],,,,,,664542,001,2023-05-19_00h47.37.695,staircase,2023.1.1,60.00132002512176,
two_seed_bw,4.5,0,1,1,0,0,0,0,5,22,0,22,0,,,,,0.09596249996684492,4.401999999999999,4.598000000000001,10511,5731,two_seed_bw,4.5,[-0.22592592592592592],[0.004629629629629629],[1],[0],[0],[0.8631638999795541],[1],['image_l'],,,,,,664542,001,2023-05-19_00h47.37.695,staircase,2023.1.1,60.00132002512176,
two_seed_bw,4.5,0,1,1,0,0,0,0,5,23,0,23,0,,,,,0.09330880001652986,4.588000000000001,4.411999999999999,9474,7099,two_seed_bw,4.5,[0.43425925925925923],[0.023148148148148147],[1],[0],[0],[0.8292453000321984],[1],['image_r'],,,,,,664542,001,2023-05-19_00h47.37.695,staircase,2023.1.1,60.00132002512176,
two_seed_bw,4.5,0,1,1,0,0,0,0,5,24,0,24,0,,,,,0.11402009997982532,4.579000000000001,4.420999999999999,3475,2142,two_seed_bw,4.5,[-0.3824074074074074],[-0.025],[1],[0],[0],[0.9099363000132143],[0],['image_l'],,,,,,664542,001,2023-05-19_00h47.37.695,staircase,2023.1.1,60.00132002512176,
two_seed_bw,4.5,0,1,1,0,0,0,0,5,25,0,25,0,,,,,0.09353539999574423,4.428999999999999,4.571000000000001,7384,5582,two_seed_bw,4.5,[-0.28703703703703703],[0.04814814814814815],[1],[0],[0],[1.5809007999487221],[1],['image_l'],,,,,,664542,001,2023-05-19_00h47.37.695,staircase,2023.1.1,60.00132002512176,
two_seed_bw,4.5,0,1,1,0,0,0,0,5,26,0,26,0,,,,,0.09284689999185503,4.578,4.422,5602,1992,two_seed_bw,4.5,[0.39166666666666666],[0.019444444444444445],[1],[0],[0],[0.8480667000403628],[1],['image_r'],,,,,,664542,001,2023-05-19_00h47.37.695,staircase,2023.1.1,60.00132002512176,
two_seed_bw,4.5,0,1,1,0,0,0,0,5,27,0,27,0,,,,,0.09303069999441504,4.586,4.414,9789,9824,two_seed_bw,4.5,[0.3592592592592593],[0.06481481481481481],[1],[0],[0],[1.3982145000481978],[1],['image_r'],,,,,,664542,001,2023-05-19_00h47.37.695,staircase,2023.1.1,60.00132002512176,
two_seed_bw,4.5,0,1,1,0,0,0,0,5,28,0,28,0,,,,,0.09580889996141195,4.595000000000001,4.404999999999999,1501,3990,two_seed_bw,4.5,[-0.20833333333333334],[-0.006481481481481481],[1],[0],[0],[4.761458200053312],[0],['image_l'],,,,,,664542,001,2023-05-19_00h47.37.695,staircase,2023.1.1,60.00132002512176,
two_seed_bw,3.5,0,1,1,0,0,1,1,3,0,0,0,0,,,,,0.10125489998608828,4.5,2.5,10061,1399,two_seed_bw,3.5,[0.35185185185185186],[0.08148148148148149],[1],[0],[0],[0.7984511000104249],[1],['image_r'],512.3833705000579,512.3833705000579,space,1.4914369999896735,,664542,001,2023-05-19_00h47.37.695,staircase,2023.1.1,60.00132002512176,
two_seed_bw,3.5,0,1,1,0,0,1,1,3,1,0,1,0,,,,,0.09428369998931885,2.6,4.4,2569,11341,two_seed_bw,3.5,[-0.16666666666666666],[0.06574074074074074],[1],[0],[0],[0.5444766000146046],[1],['image_l'],,,,,,664542,001,2023-05-19_00h47.37.695,staircase,2023.1.1,60.00132002512176,
two_seed_bw,3.5,0,1,1,0,0,1,1,3,2,0,2,0,,,,,0.09439970005769283,4.3100000000000005,2.69,1576,2795,two_seed_bw,3.5,[0.4222222222222222],[0.08981481481481482],[1],[0],[0],[4.396453800029121],[1],['image_r'],,,,,,664542,001,2023-05-19_00h47.37.695,staircase,2023.1.1,60.00132002512176,
two_seed_bw,3.5,0,1,1,0,0,1,1,3,3,0,3,0,,,,,0.09301980002783239,2.771,4.229,3973,580,two_seed_bw,3.5,[-0.23425925925925925],[0.018518518518518517],[1],[0],[0],[0.6308829999761656],[1],['image_l'],,,,,,664542,001,2023-05-19_00h47.37.695,staircase,2023.1.1,60.00132002512176,
two_seed_bw,3.5,0,1,1,0,0,1,1,3,4,0,4,0,,,,,0.09490400005597621,4.156,2.844,9869,3849,two_seed_bw,3.5,[0.39351851851851855],[0.008333333333333333],[1],[0],[0],[0.6633229000726715],[1],['image_r'],,,,,,664542,001,2023-05-19_00h47.37.695,staircase,2023.1.1,60.00132002512176,
two_seed_bw,3.5,0,1,1,0,0,1,1,3,5,0,5,0,,,,,0.09502399992197752,2.9099999999999997,4.09,1067,2019,two_seed_bw,3.5,[-0.26851851851851855],[0.006481481481481481],[1],[0],[0],[0.6788516000378877],[1],['image_l'],,,,,,664542,001,2023-05-19_00h47.37.695,staircase,2023.1.1,60.00132002512176,
two_seed_bw,3.5,0,1,1,0,0,1,1,3,6,0,6,0,,,,,0.09416699991561472,2.969,4.031,7476,503,two_seed_bw,3.5,[-0.2601851851851852],[0.041666666666666664],[1],[0],[0],[0.647546200081706],[1],['image_l'],,,,,,664542,001,2023-05-19_00h47.37.695,staircase,2023.1.1,60.00132002512176,
two_seed_bw,3.5,0,1,1,0,0,1,1,3,7,0,7,0,,,,,0.0934261999791488,3.022,3.9779999999999998,10412,9046,two_seed_bw,3.5,[-0.19444444444444445],[0.03888888888888889],[1],[0],[0],[0.5467498000944033],[1],['image_l'],,,,,,664542,001,2023-05-19_00h47.37.695,staircase,2023.1.1,60.00132002512176,
two_seed_bw,3.5,0,1,1,0,0,1,1,3,8,0,8,0,,,,,0.09726150007918477,3.9299999999999997,3.07,1792,6143,two_seed_bw,3.5,[0.3648148148148148],[0.062037037037037036],[1],[0],[0],[0.5606013999786228],[1],['image_r'],,,,,,664542,001,2023-05-19_00h47.37.695,staircase,2023.1.1,60.00132002512176,
two_seed_bw,3.5,0,1,1,0,0,1,1,3,9,0,9,0,,,,,0.0954861999489367,3.113,3.8869999999999996,3234,3808,two_seed_bw,3.5,[-0.2814814814814815],[0.023148148148148147],[1],[0],[0],[0.5953768000472337],[1],['image_l'],,,,,,664542,001,2023-05-19_00h47.37.695,staircase,2023.1.1,60.00132002512176,
two_seed_bw,3.5,0,1,1,0,0,1,1,3,10,0,10,0,,,,,0.09355790005065501,3.152,3.8479999999999994,1834,8620,two_seed_bw,3.5,[-0.24166666666666667],[0.025925925925925925],[1],[0],[0],[0.4485391000052914],[1],['image_l'],,,,,,664542,001,2023-05-19_00h47.37.695,staircase,2023.1.1,60.00132002512176,
two_seed_bw,3.5,0,1,1,0,0,1,1,3,11,0,11,0,,,,,0.10989779990632087,3.8129999999999993,3.1870000000000003,12243,2268,two_seed_bw,3.5,[0.3398148148148148],[0.012962962962962963],[1],[0],[0],[0.5135682000545785],[1],['image_r'],,,,,,664542,001,2023-05-19_00h47.37.695,staircase,2023.1.1,60.00132002512176,
two_seed_bw,3.5,0,1,1,0,0,1,1,3,12,0,12,0,,,,,0.09404440002981573,3.781999999999999,3.2180000000000004,1361,9688,two_seed_bw,3.5,[0.3425925925925926],[0.032407407407407406],[1],[0],[0],[1.3134894000831991],[1],['image_r'],,,,,,664542,001,2023-05-19_00h47.37.695,staircase,2023.1.1,60.00132002512176,
two_seed_bw,3.5,0,1,1,0,0,1,1,3,13,0,13,0,,,,,0.09437819989398122,3.753999999999999,3.2460000000000004,12059,2441,two_seed_bw,3.5,[0.41203703703703703],[0.03611111111111111],[1],[0],[0],[0.7760200999910012],[1],['image_r'],,,,,,664542,001,2023-05-19_00h47.37.695,staircase,2023.1.1,60.00132002512176,
two_seed_bw,3.5,0,1,1,0,0,1,1,3,14,0,14,0,,,,,0.09595720004290342,3.728999999999999,3.2710000000000004,12261,11187,two_seed_bw,3.5,[0.3111111111111111],[0.062037037037037036],[1],[0],[0],[1.0450197999598458],[1],['image_r'],,,,,,664542,001,2023-05-19_00h47.37.695,staircase,2023.1.1,60.00132002512176,
two_seed_bw,3.5,0,1,1,0,0,1,1,3,15,0,15,0,,,,,0.09618819993920624,3.2940000000000005,3.705999999999999,7020,6056,two_seed_bw,3.5,[-0.25277777777777777],[0.012962962962962963],[1],[0],[0],[0.49458179995417595],[1],['image_l'],,,,,,664542,001,2023-05-19_00h47.37.695,staircase,2023.1.1,60.00132002512176,
two_seed_bw,3.5,0,1,1,0,0,1,1,3,16,0,16,0,,,,,0.09462619991973042,3.684999999999999,3.3150000000000004,12187,10903,two_seed_bw,3.5,[0.39537037037037037],[0.04814814814814815],[1],[0],[0],[0.8293622999917716],[1],['image_r'],,,,,,664542,001,2023-05-19_00h47.37.695,staircase,2023.1.1,60.00132002512176,
two_seed_bw,3.5,0,1,1,0,0,1,1,3,17,0,17,0,,,,,0.0938247999874875,3.333,3.6669999999999994,7046,5846,two_seed_bw,3.5,[-0.2740740740740741],[-0.021296296296296296],[1],[0],[0],[0.5317628000630066],[1],['image_l'],,,,,,664542,001,2023-05-19_00h47.37.695,staircase,2023.1.1,60.00132002512176,
two_seed_bw,3.5,0,1,1,0,0,1,1,3,18,0,18,0,,,,,0.09557899995706975,3.6499999999999995,3.35,10856,8380,two_seed_bw,3.5,[0.2777777777777778],[0.04351851851851852],[1],[0],[0],[1.2760148000670597],[1],['image_r'],,,,,,664542,001,2023-05-19_00h47.37.695,staircase,2023.1.1,60.00132002512176,
two_seed_bw,3.5,0,1,1,0,0,1,1,3,19,0,19,0,,,,,0.09719869995024055,3.6349999999999993,3.365,4369,11529,two_seed_bw,3.5,[0.29444444444444445],[0.05],[1],[0],[0],[1.2936766999773681],[1],['image_r'],,,,,,664542,001,2023-05-19_00h47.37.695,staircase,2023.1.1,60.00132002512176,
two_seed_bw,3.5,0,1,1,0,0,1,1,3,20,0,20,0,,,,,0.10023149999324232,3.6219999999999994,3.378,263,9288,two_seed_bw,3.5,[-0.24814814814814815],[-0.041666666666666664],[1],[0],[0],[1.3403415000066161],[0],['image_l'],,,,,,664542,001,2023-05-19_00h47.37.695,staircase,2023.1.1,60.00132002512176,
two_seed_bw,3.5,0,1,1,0,0,1,1,3,21,0,21,0,,,,,0.09233690006658435,3.39,3.6099999999999994,2903,1914,two_seed_bw,3.5,[-0.24722222222222223],[-0.041666666666666664],[1],[0],[0],[0.7490261000348255],[1],['image_l'],,,,,,664542,001,2023-05-19_00h47.37.695,staircase,2023.1.1,60.00132002512176,
two_seed_bw,3.5,0,1,1,0,0,1,1,3,22,0,22,0,,,,,0.0939061000244692,3.6209999999999996,3.379,10023,2234,two_seed_bw,3.5,[0.3787037037037037],[0.04814814814814815],[1],[0],[0],[2.463808099972084],[1],['image_r'],,,,,,664542,001,2023-05-19_00h47.37.695,staircase,2023.1.1,60.00132002512176,
two_seed_bw,3.5,0,1,1,0,0,1,1,3,23,0,23,0,,,,,0.09431920002680272,3.367,3.6329999999999996,5426,507,two_seed_bw,3.5,[-0.3435185185185185],[0.003703703703703704],[1],[0],[0],[0.8631396000273526],[1],['image_l'],,,,,,664542,001,2023-05-19_00h47.37.695,staircase,2023.1.1,60.00132002512176,
two_seed_bw,3.5,0,1,1,0,0,1,1,3,24,0,24,0,,,,,0.09234990004915744,3.354,3.6459999999999995,5313,10344,two_seed_bw,3.5,[-0.34074074074074073],[-0.000925925925925926],[1],[0],[0],[0.8486286000115797],[1],['image_l'],,,,,,664542,001,2023-05-19_00h47.37.695,staircase,2023.1.1,60.00132002512176,
two_seed_bw,3.5,0,1,1,0,0,1,1,3,25,0,25,0,,,,,0.0929879000177607,3.6309999999999993,3.369,776,11740,two_seed_bw,3.5,[0.3731481481481482],[0.020370370370370372],[1],[0],[0],[0.7476429999805987],[1],['image_r'],,,,,,664542,001,2023-05-19_00h47.37.695,staircase,2023.1.1,60.00132002512176,
two_seed_bw,3.5,0,1,1,0,0,1,1,3,26,0,26,0,,,,,0.09345299995038658,3.382,3.6179999999999994,9219,7998,two_seed_bw,3.5,[-0.2962962962962963],[0.09351851851851851],[1],[0],[0],[2.4309127000160515],[1],['image_l'],,,,,,664542,001,2023-05-19_00h47.37.695,staircase,2023.1.1,60.00132002512176,
two_seed_bw,3.5,0,1,1,0,0,1,1,3,27,0,27,0,,,,,0.0969690999481827,3.6059999999999994,3.394,4595,5613,two_seed_bw,3.5,[0.49537037037037035],[0.06388888888888888],[1],[0],[0],[0.8943398999981582],[1],['image_r'],,,,,,664542,001,2023-05-19_00h47.37.695,staircase,2023.1.1,60.00132002512176,
two_seed_bw,3.5,0,1,1,0,0,1,1,3,28,0,28,0,,,,,0.09772449999582022,3.4050000000000002,3.5949999999999993,8934,6269,two_seed_bw,3.5,[-0.2740740740740741],[0.007407407407407408],[1],[0],[0],[0.5770860000047833],[1],['image_l'],,,,,,664542,001,2023-05-19_00h47.37.695,staircase,2023.1.1,60.00132002512176,
two_seed_bw,3.5,0,1,1,0,0,1,1,3,29,0,29,0,,,,,0.09789630002342165,3.414,3.5859999999999994,10343,4077,two_seed_bw,3.5,[-0.362962962962963],[0.03518518518518519],[1],[0],[0],[0.6091440999880433],[1],['image_l'],,,,,,664542,001,2023-05-19_00h47.37.695,staircase,2023.1.1,60.00132002512176,
two_seed_bw,3.5,0,1,1,0,0,1,1,3,30,0,30,0,,,,,0.09666909999214113,3.5769999999999995,3.423,2558,9544,two_seed_bw,3.5,[0.3648148148148148],[0.027777777777777776],[1],[0],[0],[0.6104235999519005],[1],['image_r'],,,,,,664542,001,2023-05-19_00h47.37.695,staircase,2023.1.1,60.00132002512176,
two_seed_bw,3.5,0,1,1,0,0,1,1,3,31,0,31,0,,,,,0.09617409994825721,3.431,3.5689999999999995,2631,6859,two_seed_bw,3.5,[0.35555555555555557],[0.026851851851851852],[1],[0],[0],[0.7788895999547094],[0],['image_r'],,,,,,664542,001,2023-05-19_00h47.37.695,staircase,2023.1.1,60.00132002512176,
two_seed_bw,3.5,0,1,1,0,0,1,1,3,32,0,32,0,,,,,0.09465549991000444,3.5619999999999994,3.438,7120,10530,two_seed_bw,3.5,[0.5509259259259259],[0.05185185185185185],[1],[0],[0],[2.0952459999825805],[1],['image_r'],,,,,,664542,001,2023-05-19_00h47.37.695,staircase,2023.1.1,60.00132002512176,
two_seed_bw,3.5,0,1,1,0,0,1,1,3,33,0,33,0,,,,,0.09804820001590997,3.567999999999999,3.4320000000000004,8666,2827,two_seed_bw,3.5,[0.3574074074074074],[0.03981481481481482],[1],[0],[0],[1.1430106000043452],[1],['image_r'],,,,,,664542,001,2023-05-19_00h47.37.695,staircase,2023.1.1,60.00132002512176,
two_seed_bw,3.5,0,1,1,0,0,1,1,3,34,0,34,0,,,,,0.09266619989648461,3.5749999999999993,3.4250000000000003,4092,6988,two_seed_bw,3.5,[0.31666666666666665],[0.026851851851851852],[1],[0],[0],[0.8818624999839813],[1],['image_r'],,,,,,664542,001,2023-05-19_00h47.37.695,staircase,2023.1.1,60.00132002512176,
two_seed_bw,4,0,1,1,0,0,2,2,4,0,0,0,0,,,,,0.10086020000744611,5,3,7976,3785,two_seed_bw,4,[0.3685185185185185],[0.06296296296296296],[1],[0],[0],[0.6149856999982148],[1],['image_r'],554.816336799995,554.816336799995,space,1.0834289999911562,,664542,001,2023-05-19_00h47.37.695,staircase,2023.1.1,60.00132002512176,
